"Time (s)","Linear Acceleration x (m/s^2)","Linear Acceleration y (m/s^2)","Linear Acceleration z (m/s^2)","Absolute acceleration (m/s^2)"
8.903083275E-3,6.799463958E-1,5.951886660E-1,-7.995253180E-1,1.206572577E0
1.888308336E-2,5.221199588E-1,4.529463744E-1,-7.643540235E-1,1.030537114E0
2.886308334E-2,3.131787707E-1,3.429298425E-1,-6.166011697E-1,7.719318764E-1
3.884308331E-2,9.743507802E-2,1.113929665E-1,-4.347796601E-1,4.592769755E-1
4.882308329E-2,-1.047949684E-1,-6.457548022E-2,-2.584258819E-1,2.862445012E-1
5.880308338E-2,-2.393668824E-1,-1.393637073E-1,-5.821122453E-2,2.830323197E-1
6.878308335E-2,-2.852289337E-1,-2.631568640E-1,9.840630054E-2,4.003634345E-1
7.876308332E-2,-2.212143476E-1,-3.713145661E-1,1.476512584E-1,4.567397385E-1
8.874308330E-2,-2.304373071E-2,-3.630009949E-1,1.325022921E-1,3.871144446E-1
9.872308327E-2,3.542097062E-2,-1.760432911E-1,8.267904460E-2,1.976909455E-1
1.087030834E-1,5.348623574E-2,9.637380838E-3,1.049896806E-1,1.182222042E-1
1.186830833E-1,5.169026345E-2,2.957229316E-2,1.930095720E-1,2.019878678E-1
1.286630833E-1,-8.558131009E-3,-5.953634977E-3,1.942032811E-1,1.944829087E-1
1.386430833E-1,-1.210125133E-1,-1.220109254E-1,1.296283856E-2,1.723331932E-1
1.486220834E-1,-2.083099812E-1,-1.537472731E-1,-1.247313425E-1,2.873833330E-1
1.586020833E-1,-1.075025216E-1,-9.540609419E-2,-8.356109709E-2,1.662575469E-1
1.685820833E-1,7.565303028E-2,-8.375902534E-2,-7.530892164E-2,1.356848886E-1
1.785620833E-1,1.559475803E-1,-2.069446564E-2,-1.021707380E-1,1.875813648E-1
1.885420834E-1,1.649283189E-1,4.397047698E-2,-1.570585513E-1,2.319528869E-1
1.985220833E-1,1.828039149E-1,9.762452781E-2,-1.046853331E-1,2.321784630E-1
2.085020833E-1,2.492632218E-1,1.748481202E-1,-1.014404207E-2,3.046422828E-1
2.184820833E-1,2.777278331E-1,2.276999331E-1,5.580904216E-2,3.634482879E-1
2.284620834E-1,1.755920322E-1,2.294500047E-1,9.434014678E-2,3.039406681E-1
2.384420834E-1,4.238039978E-2,2.289681941E-1,1.752264351E-2,2.335156852E-1
2.484220833E-1,-5.612815395E-2,2.465893632E-1,-6.991223395E-2,2.623821720E-1
2.584020833E-1,-7.761645220E-2,2.273713195E-1,-9.541895807E-2,2.585088164E-1
2.683820833E-1,-5.696854502E-2,1.217039466E-1,-2.805286494E-1,3.110523893E-1
2.783620834E-1,-1.519284967E-1,4.162165046E-2,-5.057210040E-1,5.296870432E-1
2.883420833E-1,-2.365681127E-1,8.126869619E-2,-5.415305221E-1,5.965101670E-1
2.983220833E-1,-1.556004750E-1,8.528748751E-2,-5.176548788E-1,5.472221093E-1
3.083020833E-1,-6.262916140E-2,7.970281184E-2,-5.507086042E-1,5.599597457E-1
3.182820834E-1,-8.637521580E-2,1.104574120E-1,-6.133261442E-1,6.291505996E-1
3.282620833E-1,-6.405456640E-2,1.245000851E-1,-6.279243028E-1,6.433445335E-1
3.382420833E-1,7.700991321E-2,1.722104412E-1,-6.592183086E-1,6.856790366E-1
3.482220833E-1,3.216479875E-1,2.154026538E-1,-8.786087635E-1,9.601088951E-1
3.582020833E-1,3.488982417E-1,2.225678319E-1,-1.161479223E0,1.233004626E0
3.681810834E-1,2.047325451E-1,2.530394268E-1,-1.247700511E0,1.289457611E0
3.781610833E-1,-1.413181026E-1,2.632960278E-1,-1.260677529E0,1.295609291E0
3.881410833E-1,-9.666280702E-1,4.953404421E-1,-1.155925830E0,1.586157780E0
3.981210833E-1,-1.963139944E0,1.608562594E0,-7.761637911E-1,2.654020024E0
4.081010834E-1,-2.367951016E0,3.391646449E0,3.893924028E-2,4.136662170E0
4.180810833E-1,-1.700044622E0,5.306422464E0,9.926148507E-1,5.659819372E0
4.280610833E-1,7.651876172E-1,6.960603865E0,1.732204893E0,7.213601878E0
4.380410833E-1,4.531978047E0,8.093877289E0,2.120104794E0,9.515488370E0
4.480210834E-1,8.181526467E0,8.582248435E0,2.170454875E0,1.205417927E1
4.580010833E-1,1.103186459E1,8.645900640E0,1.692635907E0,1.411802573E1
4.679810833E-1,1.219774559E1,8.354026346E0,1.105806421E0,1.482557121E1
4.779610833E-1,1.141139683E1,7.598189523E0,8.744090009E-1,1.373743254E1
4.879410833E-1,9.769962945E0,6.647555049E0,8.905790372E-1,1.185053987E1
4.979210834E-1,8.348753327E0,5.262382405E0,1.430173839E0,9.971948049E0
5.079010833E-1,7.215422015E0,3.379388931E0,2.275505367E0,8.286163713E0
5.178810833E-1,6.217735582E0,1.133140107E0,3.312859311E0,7.135774596E0
5.278610833E-1,5.210035792E0,-1.617835693E0,4.427788265E0,7.026177781E0
5.378410834E-1,4.359483723E0,-5.121715938E0,4.990701470E0,8.375211857E0
5.478210833E-1,2.873468244E0,-9.012701740E0,3.919317316E0,1.023946584E1
5.578010833E-1,-3.295847422E-1,-1.244668729E1,2.405060370E0,1.268120523E1
5.677810833E-1,-4.278358284E0,-1.630213079E1,9.901370931E-1,1.688325175E1
5.777610834E-1,-8.252686497E0,-1.967037493E1,-1.101808387E0,2.135987982E1
5.877410833E-1,-1.204362001E1,-2.141078932E1,-3.376500406E0,2.479660132E1
5.977200833E-1,-1.452218222E1,-2.231382862E1,-4.176035811E0,2.694884041E1
6.077000833E-1,-1.623197473E1,-2.261913982E1,-4.361628774E0,2.818024655E1
6.176797083E-1,-1.748439219E1,-2.333517581E1,-4.460774163E0,2.949801530E1
6.276597084E-1,-1.870101884E1,-2.421843282E1,-4.052169564E0,3.086552563E1
6.376397084E-1,-1.879644306E1,-2.499998570E1,-2.915531652E0,3.141346657E1
6.476197083E-1,-1.744633383E1,-2.594626634E1,-1.600829067E0,3.130728277E1
6.575997083E-1,-1.574009409E1,-2.642769567E1,-4.705365533E-1,3.076353466E1
6.675797083E-1,-1.400419025E1,-2.636992050E1,2.269023728E-1,2.985869281E1
6.775597084E-1,-1.146097420E1,-2.609893714E1,2.161756557E-1,2.850535355E1
6.875397083E-1,-7.332799022E0,-2.562990624E1,-3.444004903E-1,2.666046975E1
6.975197083E-1,-1.948298395E0,-2.405577030E1,-1.476379414E0,2.417965359E1
7.074997083E-1,2.672651178E0,-2.101470127E1,-2.462923247E0,2.132666698E1
7.174797084E-1,6.188870802E0,-1.780206557E1,-3.149775789E0,1.910855170E1
7.274597083E-1,9.625954794E0,-1.487978155E1,-3.280643784E0,1.802302773E1
7.374397083E-1,1.376792180E1,-1.245326190E1,-2.480128094E0,1.872940037E1
7.474197083E-1,1.961953339E1,-1.104037580E1,-1.067840742E0,2.253788526E1
7.573997083E-1,2.619053260E1,-9.577869047E0,2.475392142E0,2.799655585E1
7.673797084E-1,3.205005313E1,-7.039921930E0,7.128411938E0,3.357946788E1
7.773597083E-1,3.606755806E1,-3.688467488E0,1.137464708E1,3.799810697E1
7.873397083E-1,3.746855093E1,1.140419014E-1,1.531740004E1,4.047873588E1
7.973197083E-1,3.703617974E1,3.012003694E0,1.811182416E1,4.133750054E1
8.072997084E-1,3.525151363E1,4.848588402E0,1.852702208E1,4.011768400E1
8.172797083E-1,3.303257949E1,6.243132963E0,1.648056911E1,3.743978065E1
8.272597083E-1,3.178867792E1,6.861148574E0,1.317780910E1,3.508917292E1
8.372397083E-1,3.126882302E1,6.735745094E0,1.060017635E1,3.369678462E1
8.472197084E-1,3.008884555E1,6.240202339E0,1.023344483E1,3.238830259E1
8.571987083E-1,2.819915643E1,5.424528619E0,1.138556851E1,3.089092268E1
8.671787083E-1,2.624020821E1,4.195509085E0,1.274191672E1,2.947044731E1
8.771587083E-1,2.464225305E1,2.861790478E0,1.381705830E1,2.839615431E1
8.871387084E-1,2.347951550E1,1.140778033E0,1.460721593E1,2.767597840E1
8.971187084E-1,2.196547490E1,-8.158862659E-1,1.445716586E1,2.630888448E1
9.070987083E-1,1.950348136E1,-2.828737922E0,1.321584290E1,2.372859134E1
9.170787083E-1,1.662052338E1,-4.904449777E0,1.122592666E1,2.064744184E1
9.270587083E-1,1.400214255E1,-6.790905388E0,9.146812309E0,1.805105447E1
9.370387084E-1,1.191286691E1,-8.444896170E0,7.505048640E0,1.641823451E1
9.470187083E-1,9.983421400E0,-1.010555804E1,6.401136425E0,1.558093558E1
9.569987083E-1,7.961301615E0,-1.198858367E1,5.961118244E0,1.557701488E1
9.669787083E-1,5.705630003E0,-1.392299932E1,6.203157889E0,1.627523553E1
9.769587084E-1,3.717260347E0,-1.561926839E1,6.952784969E0,1.749630785E1
9.869387083E-1,2.096455145E0,-1.725271498E1,7.924976957E0,1.910121876E1
9.969187083E-1,8.122533908E-1,-1.887129444E1,8.991817825E0,2.091980634E1
1.006898708E0,-2.854119515E-1,-2.053628208E1,9.805542083E0,2.275893225E1
1.016878708E0,-1.697811863E0,-2.204378315E1,1.031366629E1,2.439636558E1
1.026858708E0,-3.720808145E0,-2.271755548E1,1.031229687E1,2.522449617E1
1.036838708E0,-5.767164931E0,-2.239383491E1,9.956822416E0,2.517702019E1
1.046818708E0,-7.175970851E0,-2.186428533E1,9.589399756E0,2.492986398E1
1.056798708E0,-8.076199402E0,-2.131786303E1,8.856411513E0,2.445633467E1
1.066778708E0,-8.276936654E0,-2.130349291E1,7.839974813E0,2.416219559E1
1.076758708E0,-8.186761479E0,-2.175506636E1,6.713652560E0,2.419460904E1
1.086738708E0,-8.489591117E0,-2.210398141E1,5.975849719E0,2.442068655E1
1.096718708E0,-9.373911733E0,-2.223985199E1,5.651342114E0,2.478747477E1
1.106698708E0,-1.064341417E1,-2.210440475E1,5.777261903E0,2.520443869E1
1.116678708E0,-1.207516690E1,-2.117257141E1,6.117645868E0,2.512992294E1
1.126658708E0,-1.265315949E1,-2.013181380E1,6.154441227E0,2.456154553E1
1.136638708E0,-1.263468463E1,-1.943594953E1,5.852715544E0,2.390911268E1
1.146618708E0,-1.215131870E1,-1.853219336E1,5.356247174E0,2.279881840E1
1.156598708E0,-1.128149626E1,-1.776403996E1,4.573504095E0,2.153486042E1
1.166578708E0,-1.004914644E1,-1.721649967E1,3.599268505E0,2.025704665E1
1.176558708E0,-8.458656422E0,-1.675284353E1,2.574442513E0,1.894292451E1
1.186537708E0,-6.933645862E0,-1.617092746E1,1.751444279E0,1.768168253E1
1.196517708E0,-5.516090754E0,-1.558937860E1,1.228399583E0,1.658206705E1
1.206497708E0,-4.041473252E0,-1.475472131E1,1.064824017E0,1.533522602E1
1.216477708E0,-2.193026151E0,-1.346352160E1,1.154292702E0,1.368971034E1
1.226457708E0,5.349060288E-2,-1.215883939E1,1.339885666E0,1.223256025E1
1.236437708E0,2.468528680E0,-1.065679377E1,1.186439671E0,1.100311440E1
1.246417708E0,5.041927757E0,-8.593890241E0,7.631550519E-1,9.992917023E0
1.256397708E0,8.422173890E0,-6.457436340E0,6.861823051E-1,1.063495855E1
1.266377708E0,1.149656621E1,-4.647949968E0,7.898979505E-1,1.242571576E1
1.276357708E0,1.391278189E1,-2.823239200E0,1.145350336E0,1.424247194E1
1.286337708E0,1.548290548E1,-3.981486082E-1,2.627633464E0,1.570933932E1
1.296317708E0,1.598081694E1,2.097956418E0,4.653962075E0,1.677639098E1
1.306297708E0,1.532302857E1,4.560030064E0,6.173625941E0,1.713775761E1
1.316277708E0,1.406025101E1,6.592799968E0,7.041110669E0,1.705089175E1
1.326257708E0,1.277274909E1,7.773041151E0,6.690911568E0,1.638082982E1
1.336237708E0,1.202619063E1,8.886296632E0,5.499194639E0,1.593225252E1
1.346217708E0,1.150651583E1,9.833019319E0,4.517511451E0,1.579544507E1
1.356197708E0,1.148065125E1,1.018992401E1,3.543526706E0,1.575425295E1
1.366177708E0,1.256180727E1,1.048890384E1,2.862185749E0,1.661349491E1
1.376157708E0,1.403545648E1,1.100089656E1,1.909112695E0,1.793483970E1
1.386137708E0,1.491307092E1,1.114750848E1,5.820217596E-1,1.862808039E1
1.396117708E0,1.467780586E1,1.141725223E1,-6.753841057E-2,1.859559612E1
1.406097708E0,1.373260111E1,1.141164592E1,-2.520961247E-1,1.785703078E1
1.416077708E0,1.266760212E1,1.127711552E1,1.408385213E-1,1.696058116E1
1.426057708E0,1.137053532E1,1.112065573E1,1.194604723E0,1.594945572E1
1.436037708E0,1.031799908E1,1.046323456E1,2.108073270E0,1.484534794E1
1.446017708E0,9.739443988E0,9.591586615E0,2.676659444E0,1.392909935E1
1.455997708E0,9.206583717E0,8.663235880E0,2.750145788E0,1.293739315E1
1.465977708E0,8.996501445E0,7.427262545E0,2.382381652E0,1.190701514E1
1.475957708E0,9.294477893E0,6.238837014E0,2.205891341E0,1.140948567E1
1.485937708E0,9.440037310E0,5.228614735E0,2.042292094E0,1.098288093E1
1.495917708E0,8.760376258E0,4.158147424E0,1.426190569E0,9.801448961E0
1.505897708E0,7.680016043E0,3.142874905E0,7.073715913E-1,8.328306170E0
1.515877708E0,6.801770684E0,1.986633618E0,4.520084810E-1,7.100359796E0
1.525857708E0,6.010199772E0,7.399996394E-1,4.283505003E-1,6.070715355E0
1.535837708E0,5.280955501E0,-3.660544109E-1,4.756544749E-1,5.314953811E0
1.545817708E0,4.679809107E0,-1.601365841E0,4.617031646E-1,4.967711309E0
1.555797708E0,4.092845719E0,-2.774883896E0,4.049600297E-1,4.961386837E0
1.565777708E0,3.608417936E0,-3.910600287E0,3.874908882E-1,5.335131094E0
1.575757708E0,3.571135797E0,-4.830140437E0,5.951282935E-1,6.036343695E0
1.585737708E0,3.998522822E0,-5.702660202E0,7.102605544E-1,7.000927667E0
1.595717708E0,4.495609535E0,-6.639007589E0,4.400059015E-1,8.029977089E0
1.605697708E0,5.021312814E0,-7.289511500E0,-8.659375548E-2,8.852008742E0
1.615677083E0,5.446852119E0,-7.769521712E0,-9.387365592E-1,9.534930098E0
1.625657083E0,5.163217136E0,-8.266273087E0,-2.052603513E0,9.960083490E0
1.635637083E0,4.544295207E0,-8.731508555E0,-3.191592152E0,1.034775923E1
1.645617083E0,4.051520230E0,-9.224795455E0,-4.144635678E0,1.089447898E1
1.655597083E0,3.636657064E0,-9.386870332E0,-4.433779323E0,1.099986401E1
1.665577083E0,3.239780225E0,-9.170108201E0,-4.223844985E0,1.060320361E1
1.675557083E0,3.571443360E0,-9.019734187E0,-3.716379172E0,1.038856519E1
1.685537083E0,3.681481234E0,-8.653594406E0,-3.109717684E0,9.904965639E0
1.695517083E0,3.248162209E0,-8.217131917E0,-2.834124961E0,9.279228361E0
1.705497083E0,2.936125253E0,-8.180435377E0,-2.943426671E0,9.176280021E0
1.715477083E0,2.368531644E0,-8.090774172E0,-3.061228186E0,8.968928969E0
1.725457083E0,1.520893828E0,-7.839279580E0,-3.295167391E0,8.638608134E0
1.735437083E0,3.822786802E-1,-7.843674347E0,-3.488033706E0,8.592772741E0
1.745417083E0,-1.018021880E0,-7.642689173E0,-3.375357860E0,8.416656523E0
1.755397083E0,-2.432630576E0,-7.437236141E0,-2.944401402E0,8.360602404E0
1.765377083E0,-3.520591587E0,-7.537828131E0,-2.318713952E0,8.636541695E0
1.775357083E0,-4.219396423E0,-7.795375761E0,-1.563545465E0,9.000881282E0
1.785337083E0,-4.591813774E0,-8.351101568E0,-9.545284268E-1,9.577931700E0
1.795317083E0,-5.110357137E0,-8.545268889E0,-5.698471257E-1,9.973068545E0
1.805297083E0,-6.386445295E0,-8.437507628E0,-1.079863787E-2,1.058198162E1
1.815277083E0,-7.916485046E0,-9.111944777E0,7.729966468E-1,1.209527994E1
1.825257083E0,-9.327456774E0,-9.779827198E0,1.456147609E0,1.359289652E1
1.835237083E0,-1.067273796E1,-9.695799201E0,1.863588905E0,1.453921667E1
1.845217083E0,-1.142084125E1,-9.687227182E0,1.914232224E0,1.509775713E1
1.855197083E0,-1.157081415E1,-9.650133031E0,2.007572205E0,1.519997216E1
1.865177083E0,-1.140250906E1,-9.747279257E0,2.322278414E0,1.517957980E1
1.875157083E0,-1.124012838E1,-9.961239402E0,2.665669017E0,1.525360835E1
1.885137083E0,-1.137663981E1,-9.999206543E0,3.048078091E0,1.545001116E1
1.895117083E0,-1.191827208E1,-9.824807489E0,3.608971667E0,1.586180091E1
1.905097083E0,-1.246454703E1,-9.674025339E0,4.263028346E0,1.634396248E1
1.915077083E0,-1.263570673E1,-9.539932896E0,4.852341730E0,1.655948744E1
1.925057083E0,-1.226619427E1,-9.410885432E0,5.320009639E0,1.635013116E1
1.935037083E0,-1.059062902E1,-9.524742415E0,5.896362669E0,1.541587603E1
1.945017083E0,-7.779571322E0,-9.531708788E0,6.987379435E0,1.414915806E1
1.954997083E0,-4.975425035E0,-9.385649434E0,8.346478175E0,1.350958798E1
1.964977083E0,-2.820023232E0,-9.234878978E0,9.200096816E0,1.333706498E1
1.974957083E0,-1.260160927E0,-8.753872985E0,9.596251523E0,1.305014717E1
1.984937083E0,3.589757717E-1,-8.440556366E0,9.633421104E0,1.281306589E1
1.994917083E0,1.980850137E0,-8.398006178E0,9.097074723E0,1.253822330E1
2.004897083E0,4.041398408E0,-8.205994726E0,8.283432326E0,1.234044171E1
2.014877083E0,6.890633744E0,-7.923481239E0,7.786004428E0,1.307227040E1
2.024857083E0,1.035399220E1,-7.497363060E0,7.629726480E0,1.488718689E1
2.034837083E0,1.316485635E1,-6.594954666E0,7.179324229E0,1.638137864E1
2.044817083E0,1.465075196E1,-5.121422408E0,5.898008076E0,1.660301177E1
2.054797083E0,1.613372280E1,-4.046350999E0,3.754474951E0,1.705186353E1
2.064777083E0,1.687802073E1,-2.808501878E0,1.437835591E0,1.717040004E1
2.074757083E0,1.641931250E1,-7.422133952E-1,-3.177295125E-1,1.643915010E1
2.084737083E0,1.525044825E1,1.033181956E0,-1.529334722E0,1.536172196E1
2.094717083E0,1.359520207E1,1.941398388E0,-2.130103971E0,1.389733391E1
2.104697083E0,1.214603867E1,2.071748613E0,-2.056044161E0,1.249182594E1
2.114677083E0,1.177064274E1,1.689078169E0,-1.807686453E0,1.202783214E1
2.124657083E0,1.172594078E1,1.530002913E0,-1.420155365E0,1.191030803E1
2.134637083E0,1.075152217E1,1.579984912E0,-1.658116577E0,1.099276726E1
2.144617083E0,9.744338692E0,1.571590065E0,-2.790134604E0,1.025704065E1
2.154597083E0,8.500563417E0,1.612609452E0,-3.594101028E0,9.368972721E0
2.164577083E0,6.807884533E0,1.669934970E0,-3.844013949E0,7.994524242E0
2.174557083E0,5.182830452E0,1.555625412E0,-3.588044482E0,6.492747117E0
2.184537083E0,3.869961261E0,1.294817959E0,-2.846794708E0,4.975680237E0
2.194517083E0,3.145044222E0,9.080334145E-1,-1.921073467E0,3.795569931E0
2.204497083E0,3.110121142E0,6.115409893E-1,-1.030073649E0,3.332849775E0
2.214477083E0,3.053001738E0,4.622288293E-1,-5.617063397E-1,3.138469232E0
2.224457083E0,2.551357413E0,1.237013555E-1,-4.203400341E-1,2.588708639E0
2.234437083E0,1.918434033E0,-1.897824937E-1,-3.149696632E-1,1.953359267E0
2.244417083E0,1.478437195E0,-5.111296785E-1,-3.460119829E-1,1.602109353E0
2.254397083E0,1.212759596E0,-7.579657942E-1,-1.787921403E-1,1.441271873E0
2.264377083E0,1.044936906E0,-9.086666679E-1,-8.375252031E-2,1.387293313E0
2.274357083E0,8.264752811E-1,-1.111045818E0,-1.427352118E-1,1.392069517E0
2.284337083E0,7.155199787E-1,-1.231526527E0,-2.873560777E-1,1.452996883E0
2.294317083E0,7.527509549E-1,-1.294715048E0,-3.441051328E-1,1.536661771E0
2.304297083E0,8.421747628E-1,-1.364453620E0,-6.009341766E-1,1.712341641E0
2.314277083E0,1.032349897E0,-1.364034374E0,-9.731345594E-1,1.968076969E0
2.324257083E0,1.008441802E0,-1.291739400E0,-1.180605465E0,2.019746224E0
2.334237083E0,6.118620014E-1,-1.313536651E0,-1.476917211E0,2.069066961E0
2.344217083E0,3.302603880E-1,-1.555961042E0,-1.657276917E0,2.297096748E0
2.354197083E0,5.896937451E-1,-1.841797501E0,-1.520567261E0,2.460097873E0
2.364177083E0,1.133369611E0,-1.959365712E0,-1.261588233E0,2.591379080E0
2.374157083E0,1.943425910E0,-2.027304511E0,-1.209039305E0,3.057555215E0
2.384137083E0,2.200564528E0,-1.787193863E0,-1.491250491E0,3.203181882E0
2.394117083E0,1.780146214E0,-1.522923689E0,-2.232117857E0,3.235825588E0
2.404097083E0,1.230022039E0,-1.548939121E0,-3.023848983E0,3.613285110E0
2.414077083E0,8.320991331E-1,-1.778896079E0,-3.487375309E0,4.002330168E0
2.424057083E0,6.379511082E-1,-1.886393631E0,-3.572035975E0,4.089609218E0
2.434037083E0,8.904426509E-1,-2.188447927E0,-3.635618598E0,4.335886880E0
2.444017083E0,2.000852292E0,-2.215326993E0,-3.755694680E0,4.797533336E0
2.453998083E0,3.340497345E0,-1.399027036E0,-3.749663862E0,5.213077617E0
2.463978083E0,4.619697976E0,-4.329646844E-1,-3.840172913E0,6.022955737E0
2.473958083E0,4.755198428E0,4.077690321E-1,-4.156866299E0,6.329117245E0
2.483938083E0,4.604451361E0,3.350203139E-1,-5.004662282E0,6.808807202E0
2.493918083E0,4.774829285E0,-5.584856933E-1,-5.793471555E0,7.528294204E0
2.503898083E0,5.047818827E0,-1.002161892E0,-6.129846668E0,8.003738098E0
2.513878083E0,5.171116725E0,-9.738555211E-1,-5.981565957E0,7.966678985E0
2.523858083E0,5.473441747E0,-7.551182002E-1,-5.057981873E0,7.490790925E0
2.533838083E0,6.642662684E0,-8.170989785E-1,-3.835444854E0,7.713835330E0
2.543818083E0,7.906704993E0,-1.088234661E0,-2.670456133E0,8.416149623E0
2.553798083E0,8.656815053E0,-8.980235660E-1,-1.881842158E0,8.904393471E0
2.563778083E0,1.003838406E1,-2.183867803E-1,-1.007402459E0,1.009116975E1
2.573758083E0,1.144161758E1,7.426542753E-1,-4.202130765E-1,1.147339214E1
2.583738083E0,1.205277558E1,1.114557948E0,-2.332199970E-1,1.210644581E1
2.593718083E0,1.290632756E1,9.864051077E-1,1.441078457E-1,1.294476934E1
2.603698083E0,1.409311236E1,8.361322501E-1,7.797571975E-1,1.413941139E1
2.613678083E0,1.518055531E1,1.159809404E0,1.431391667E0,1.529193577E1
2.623658833E0,1.617508249E1,1.649368266E0,2.155152712E0,1.640117046E1
2.633638833E0,1.714666052E1,1.896153803E0,2.934934468E0,1.749906302E1
2.643618833E0,1.798343567E1,1.802822593E0,3.726073855E0,1.845366507E1
2.653598833E0,1.819468622E1,1.425411720E0,4.362411717E0,1.876456877E1
2.663578833E0,1.770463926E1,1.072704748E0,4.537810645E0,1.830837711E1
2.673558833E0,1.698233505E1,1.187043250E-1,4.459660268E0,1.755854106E1
2.683538833E0,1.561300485E1,-1.539777996E0,4.569828828E0,1.634075189E1
2.693519833E0,1.348090654E1,-3.723927635E0,5.128374748E0,1.489639909E1
2.703498833E0,1.103115240E1,-6.373248714E0,6.182805485E0,1.416092179E1
2.713479833E0,8.450282040E0,-8.843671015E0,8.068514407E0,1.465328319E1
2.723459833E0,5.643033805E0,-1.084017181E1,1.038086366E1,1.603482104E1
2.733439833E0,2.800177197E0,-1.257824965E1,1.236099401E1,1.785630223E1
2.743419833E0,2.577595916E-1,-1.339968755E1,1.370622900E1,1.916973604E1
2.753399833E0,-2.150615419E0,-1.334011378E1,1.416639669E1,1.957729750E1
2.763379833E0,-4.784514906E0,-1.317463758E1,1.411093585E1,1.988922242E1
2.773359833E0,-6.904987489E0,-1.359355783E1,1.348541007E1,2.035485081E1
2.783339833E0,-8.582320940E0,-1.473290768E1,1.257754330E1,2.118748208E1
2.793319833E0,-1.038828378E1,-1.564875122E1,1.167967293E1,2.211819646E1
2.803299833E0,-1.254940767E1,-1.563880043E1,1.132430255E1,2.302823354E1
2.813279833E0,-1.435428527E1,-1.482176197E1,1.177570059E1,2.375704649E1
2.823259833E0,-1.546041241E1,-1.435402214E1,1.304044398E1,2.480152178E1
2.833239833E0,-1.582877062E1,-1.464837098E1,1.407026495E1,2.575067198E1
2.843219833E0,-1.590680522E1,-1.519387293E1,1.458950472E1,2.639571698E1
2.853199833E0,-1.593515018E1,-1.565763197E1,1.483526085E1,2.681744609E1
2.863179833E0,-1.609490313E1,-1.609496628E1,1.491508003E1,2.721311189E1
2.873159833E0,-1.650511104E1,-1.637760665E1,1.490221849E1,2.761740042E1
2.883139833E0,-1.679691517E1,-1.654771619E1,1.455691468E1,2.771041384E1
2.893120833E0,-1.629818977E1,-1.706149466E1,1.345351468E1,2.716105018E1
2.903100833E0,-1.461712346E1,-1.757039538E1,1.167498113E1,2.566484514E1
2.913080833E0,-1.234382658E1,-1.785626575E1,9.470842781E0,2.368360497E1
2.923060833E0,-1.011128714E1,-1.817603009E1,7.131700997E0,2.198789114E1
2.933040833E0,-8.277952316E0,-1.827657414E1,5.162338300E0,2.071732110E1
2.943020833E0,-6.833622222E0,-1.802541050E1,3.874979634E0,1.966289102E1
2.953000833E0,-5.557366249E0,-1.789732841E1,3.495771034E0,1.906355420E1
2.962980833E0,-4.127746580E0,-1.760253051E1,3.936060525E0,1.850351168E1
2.972960833E0,-2.315223164E0,-1.662708396E1,4.801569479E0,1.746067721E1
2.982940833E0,-2.625048995E-1,-1.530110151E1,5.582420983E0,1.628975261E1
2.992920833E0,2.138403363E0,-1.425864821E1,5.917410307E0,1.558517123E1
3.002900833E0,4.538372562E0,-1.330953284E1,5.771069702E0,1.520018866E1
3.012880833E0,6.435298197E0,-1.291284837E1,5.285699347E0,1.536532895E1
3.022860833E0,7.687775298E0,-1.237579799E1,4.408247455E0,1.522152786E1
3.032840833E0,9.254366578E0,-1.141701016E1,3.959039791E0,1.522055905E1
3.042821833E0,1.073993416E1,-1.076846623E1,4.204538648E0,1.577923306E1
3.052801833E0,1.258856764E1,-1.049275247E1,4.673861904E0,1.704156316E1
3.062781833E0,1.485534721E1,-9.770228993E0,4.974801722E0,1.846313536E1
3.072761833E0,1.662136538E1,-8.652943611E0,4.752766571E0,1.933214966E1
3.082741833E0,1.798278546E1,-7.465336105E0,3.680638651E0,1.981562306E1
3.092721833E0,2.024462296E1,-6.184253840E0,2.282416776E0,2.129082387E1
3.102701833E0,2.227525103E1,-5.336837341E0,1.187183510E0,2.293639130E1
3.112681833E0,2.290008918E1,-4.368344302E0,4.566616952E-1,2.331748391E1
3.122661833E0,2.218690896E1,-3.757819266E0,1.538449216E-1,2.250341759E1
3.132641833E0,2.061257187E1,-3.582440803E0,-6.733215004E-3,2.092156893E1
3.142621833E0,1.900247088E1,-3.574234236E0,-1.141085596E-1,1.933603037E1
3.152601833E0,1.772648446E1,-3.627302396E0,4.262045722E-1,1.809881831E1
3.162581833E0,1.699803600E1,-4.270366310E0,1.202191046E0,1.756742780E1
3.172561833E0,1.670411752E1,-4.511383569E0,1.692312849E0,1.738516743E1
3.182542833E0,1.639350289E1,-4.681200745E0,1.858528724E0,1.714977279E1
3.192522833E0,1.609768290E1,-5.061095515E0,1.516504031E0,1.694254606E1
3.202502833E0,1.623495915E1,-5.230755401E0,6.154486835E-1,1.706790783E1
3.212482833E0,1.708168626E1,-4.812520730E0,-7.385201477E-1,1.776203179E1
3.222462833E0,1.746998582E1,-3.999865343E0,-2.516692488E0,1.809787469E1
3.232442833E0,1.769509427E1,-4.069586665E0,-4.223651442E0,1.864181129E1
3.242422833E0,1.729143758E1,-4.433155132E0,-5.562376143E0,1.869723794E1
3.252402833E0,1.639895835E1,-4.011460956E0,-6.329311566E0,1.802991511E1
3.262382833E0,1.547253252E1,-4.124137679E0,-6.066561669E0,1.712340342E1
3.272362833E0,1.503019533E1,-4.362069654E0,-4.834378499E0,1.638003781E1
3.282342833E0,1.523466077E1,-4.378492729E0,-3.526397288E0,1.623889051E1
3.292322833E0,1.525383028E1,-4.451080064E0,-2.697561486E0,1.611732887E1
3.302303833E0,1.502941063E1,-4.902434826E0,-2.480489452E0,1.600218357E1
3.312283833E0,1.417235032E1,-5.253413361E0,-2.541721494E0,1.532691142E1
3.322263833E0,1.378916240E1,-6.250200493E0,-2.236688626E0,1.530388127E1
3.332243833E0,1.419843007E1,-7.336519021E0,-1.294388773E0,1.603419378E1
3.342223833E0,1.482983698E1,-8.124183408E0,-3.328989806E-1,1.691263559E1
3.352203833E0,1.560960528E1,-9.696573372E0,1.620415485E-1,1.837687595E1
3.362183833E0,1.532352207E1,-1.152830021E1,-1.515153909E-1,1.917641759E1
3.372163833E0,1.396715515E1,-1.368107311E1,-1.326820355E0,1.959626589E1
3.382143833E0,1.169697250E1,-1.637275463E1,-2.500127326E0,2.027651096E1
3.392123833E0,8.915653748E0,-1.899736041E1,-3.291673679E0,2.124202674E1
3.402103833E0,6.362627832E0,-2.203210042E1,-3.274075899E0,2.316497474E1
3.412084833E0,4.031909546E0,-2.469044346E1,-2.669386092E0,2.515948956E1
3.422064833E0,1.957971736E0,-2.671977812E1,-1.855289659E0,2.685558221E1
3.432044833E0,9.665412390E-1,-2.793747248E1,-6.226267254E-1,2.796112005E1
3.442024833E0,4.444983172E-1,-2.851881903E1,-2.884595203E-1,2.852374145E1
3.452004833E0,1.733079636E-1,-2.897434753E1,-1.420833642E0,2.900968147E1
3.461984833E0,1.364517939E-1,-2.979387457E1,-3.366625336E0,2.998379141E1
3.471964833E0,-9.544261006E-1,-3.030424762E1,-5.418659184E0,3.079967890E1
3.481944833E0,-2.785704169E0,-2.943338203E1,-6.805319944E0,3.033803726E1
3.491924833E0,-4.361207775E0,-2.752411643E1,-7.336524868E0,2.881703863E1
3.501904833E0,-5.848006196E0,-2.463342141E1,-6.845128373E0,2.622709304E1
3.511884833E0,-6.998074577E0,-2.217213655E1,-5.609616383E0,2.391745144E1
3.521864833E0,-8.115198576E0,-2.072512844E1,-4.177081878E0,2.264586959E1
3.531845833E0,-8.729714044E0,-1.946778762E1,-2.580577996E0,2.149097590E1
3.541825833E0,-8.675214486E0,-1.828755521E1,-1.122433856E0,2.027199743E1
3.551805833E0,-8.536020348E0,-1.825409744E1,1.933843786E-1,2.015224837E1
3.561785833E0,-9.575860528E0,-1.815687696E1,1.487032894E0,2.058107267E1
3.571765833E0,-1.125426461E1,-1.763370084E1,2.233036455E0,2.103787843E1
3.581745833E0,-1.313526009E1,-1.657024200E1,2.538254095E0,2.129673007E1
3.591725833E0,-1.402590797E1,-1.513537738E1,2.861557174E0,2.083252871E1
3.601705833E0,-1.370589922E1,-1.459354514E1,2.869730996E0,2.022519689E1
3.611685833E0,-1.251044767E1,-1.457087666E1,2.503305287E0,1.936719610E1
3.621666708E0,-1.066982254E1,-1.513052770E1,2.332686458E0,1.866063792E1
3.631646708E0,-8.791377611E0,-1.590287823E1,2.251021321E0,1.831002330E1
3.641626708E0,-7.297127498E0,-1.707590220E1,2.524015540E0,1.874046851E1
3.651606708E0,-6.752492689E0,-1.831986692E1,3.011721273E0,1.975561051E1
3.661586708E0,-7.357687696E0,-1.874203238E1,3.002045301E0,2.035710250E1
3.671566708E0,-8.492886608E0,-1.871897681E1,2.214025403E0,2.067440747E1
3.681546708E0,-9.659357014E0,-1.825191877E1,1.001432744E0,2.067458788E1
3.691526708E0,-9.923775122E0,-1.769455866E1,-3.951600963E-1,2.029125108E1
3.701506708E0,-9.001775633E0,-1.741803448E1,-2.235912700E0,1.973370708E1
3.711486708E0,-6.455341868E0,-1.812268478E1,-4.319359252E0,1.971699791E1
3.721467708E0,-3.018449956E0,-1.894694572E1,-6.470206659E0,2.024750272E1
3.731447708E0,-6.608528978E-1,-1.933796072E1,-8.156181711E0,2.099801780E1
3.741427708E0,6.209953523E-1,-1.972262331E1,-8.510238805E0,2.148933852E1
3.751407708E0,5.876309936E-1,-1.946474239E1,-8.062121646E0,2.107651091E1
3.761387708E0,-3.605064265E-1,-1.886183365E1,-8.021361875E0,2.049977999E1
3.771367708E0,-1.233331563E0,-1.834959066E1,-8.686496104E0,2.033921824E1
3.781347708E0,-1.555960457E0,-1.817500098E1,-9.782092994E0,2.069881680E1
3.791327708E0,-1.608054471E0,-1.941641165E1,-1.034306726E1,2.205814862E1
3.801308708E0,-1.095923895E0,-2.092974356E1,-8.632242714E0,2.266651338E1
3.811288708E0,7.651072910E-1,-2.271936577E1,-4.695404216E0,2.321210441E1
3.821268708E0,6.161920985E0,-2.458522866E1,-3.010047215E-1,2.534745238E1
3.831248708E0,1.400308746E1,-2.394993102E1,3.965585749E0,2.802519446E1
3.841228708E0,1.889723620E1,-2.074880498E1,6.559730455E0,2.882097340E1
3.851208708E0,2.032908716E1,-1.735686676E1,6.598184084E0,2.753304636E1
3.861188708E0,2.108406796E1,-1.456542004E1,6.237644182E0,2.637418411E1
3.871168708E0,2.098823209E1,-1.269251243E1,7.145682859E0,2.554733922E1
3.881148708E0,2.032149982E1,-1.155834906E1,9.880922048E0,2.538092607E1
3.891129708E0,2.106393716E1,-1.113461888E1,1.487870216E1,2.808994418E1
3.901109708E0,2.495263963E1,-1.066344089E1,1.812781162E1,3.263373637E1
3.911089708E0,3.046244053E1,-9.383698218E0,1.771076247E1,3.646484859E1
3.921069708E0,3.474718426E1,-6.338049061E0,1.925489284E1,4.022795767E1
3.931049708E0,3.433318736E1,-3.567295638E0,2.312077479E1,4.154592133E1
3.941029708E0,3.181977575E1,-8.514502010E-1,2.626812983E1,4.127030095E1
3.951009708E0,2.973991412E1,1.000602147E0,2.649797452E1,3.984477821E1
3.960989708E0,2.839665432E1,1.910542924E0,2.423778711E1,3.738302388E1
3.970970708E0,2.820335473E1,2.020209207E0,1.985538785E1,3.455064240E1
3.980950708E0,2.903171106E1,2.093778582E0,1.482434761E1,3.266474304E1
3.990930708E0,2.952948219E1,2.295114589E0,1.109454440E1,3.162825927E1
4.000910708E0,2.927377877E1,2.398818760E0,9.439157889E0,3.085135583E1
4.010890708E0,2.872289621E1,2.083810541E0,9.630847744E0,3.036610382E1
4.020870708E0,2.806574636E1,1.141059284E0,1.009050146E1,2.984637925E1
4.030850708E0,2.714172490E1,2.438370788E-1,9.762130600E0,2.884496283E1
4.040830708E0,2.654745600E1,-8.377490783E-1,8.811368072E0,2.798409282E1
4.050811708E0,2.519785782E1,-2.010246867E0,8.411307424E0,2.664063107E1
4.060791708E0,2.356888902E1,-2.800678596E0,8.368872426E0,2.516692981E1
4.070771708E0,2.271461550E1,-4.461310060E0,7.351667987E0,2.428794077E1
4.080751708E0,2.215606373E1,-6.681165429E0,5.774140075E0,2.385099212E1
4.090731708E0,2.159289266E1,-9.180568285E0,4.908560954E0,2.397143755E1
4.100711708E0,2.063966085E1,-1.178626066E1,5.098113652E0,2.430848213E1
4.110691708E0,1.912947708E1,-1.422916655E1,5.782194614E0,2.453242443E1
4.120672708E0,1.731900954E1,-1.672642698E1,6.852402309E0,2.503351491E1
4.130652708E0,1.520393014E1,-1.936537247E1,8.280651975E0,2.597587996E1
4.140632708E0,1.336844003E1,-2.144793785E1,9.238856254E0,2.690884040E1
4.150612708E0,1.185205587E1,-2.305611394E1,9.239598851E0,2.752136997E1
4.160592708E0,1.015757955E1,-2.361356877E1,8.340782402E0,2.702490894E1
4.170572708E0,8.481692113E0,-2.401646298E1,6.834420952E0,2.637117564E1
4.180552708E0,6.409538873E0,-2.360345542E1,3.897354004E0,2.476680570E1
4.190532708E0,4.121274005E0,-2.270546811E1,8.648622519E-1,2.309266482E1
4.200513708E0,2.799498043E0,-2.185662314E1,-2.865574211E-1,2.203704335E1
4.210493708E0,2.052130912E0,-2.054675795E1,-1.832495458E-1,2.064979622E1
4.220473708E0,1.860610625E0,-1.946870446E1,4.425605500E-1,1.956241767E1
4.230453708E0,1.717655851E0,-1.930232779E1,4.775666606E-1,1.938448528E1
4.240433708E0,1.173235050E0,-1.958674338E1,4.596613169E-1,1.962723325E1
4.250413708E0,-6.676350832E-2,-1.992131872E1,6.170495050E-1,1.993098459E1
4.260393708E0,-1.404399166E0,-2.034814675E1,1.004434705E0,2.042127083E1
4.270374708E0,-2.779158211E0,-2.041126861E1,9.168925309E-1,2.061999754E1
4.280354708E0,-4.277002022E0,-1.994773878E1,4.579368268E-1,2.040624254E1
4.290334708E0,-5.700730036E0,-1.948486149E1,3.875856131E-1,2.030537793E1
4.300314708E0,-7.243758792E0,-1.925621899E1,3.445353417E-1,2.057650883E1
4.310294708E0,-8.666831918E0,-1.885147004E1,-2.816371353E-1,2.075021006E1
4.320274708E0,-9.743703099E0,-1.825184509E1,-8.263783635E-1,2.070633962E1
4.330254708E0,-1.013204827E1,-1.797249086E1,-1.175328207E0,2.066519359E1
4.340235708E0,-1.040166338E1,-1.780299411E1,-1.710195973E0,2.068975521E1
4.350215708E0,-1.097156576E1,-1.760098918E1,-1.192826292E0,2.077481432E1
4.360195708E0,-1.169921901E1,-1.747874963E1,-2.554930647E-1,2.103434550E1
4.370175708E0,-1.233522299E1,-1.729584638E1,4.911361478E-1,2.124959395E1
4.380155708E0,-1.261053095E1,-1.685838578E1,1.134952452E0,2.108361399E1
4.390135708E0,-1.264111423E1,-1.640636092E1,1.495909845E0,2.076545675E1
4.400116708E0,-1.245258129E1,-1.600357547E1,1.714780775E0,2.034997989E1
4.410096708E0,-1.212215396E1,-1.579200450E1,1.648368684E0,1.997626447E1
4.420076708E0,-1.173116351E1,-1.563612592E1,1.386355097E0,1.959669899E1
4.430056708E0,-1.111760816E1,-1.580578989E1,1.108001319E0,1.935592602E1
4.440036708E0,-1.085182414E1,-1.626497642E1,7.489255603E-1,1.956712637E1
4.450016708E0,-1.080374716E1,-1.647861614E1,1.863378990E-1,1.970534101E1
4.459996708E0,-1.041787537E1,-1.661837161E1,-4.143582594E-1,1.961820825E1
4.469977708E0,-9.591942126E0,-1.664446422E1,-1.136456648E0,1.924409199E1
4.479957708E0,-8.128903280E0,-1.664648502E1,-2.006191823E0,1.863355408E1
4.489937708E0,-6.539009677E0,-1.669497247E1,-2.682566886E0,1.812944893E1
4.499917708E0,-5.396735634E0,-1.657312585E1,-2.921466576E0,1.767281027E1
4.509897708E0,-4.323754604E0,-1.684028396E1,-2.738820024E0,1.760088501E1
4.519877708E0,-2.659439394E0,-1.759733116E1,-2.916215776E0,1.803449462E1
4.529858708E0,-8.610829040E-2,-1.807427451E1,-4.120720566E0,1.853826183E1
4.539838708E0,1.891286873E0,-1.727495077E1,-5.063926737E0,1.810094595E1
4.549818708E0,2.997494413E0,-1.627691760E1,-5.024511825E0,1.729649497E1
4.559798708E0,3.458938253E0,-1.545153633E1,-4.790237868E0,1.654269046E1
4.569778708E0,3.299648404E0,-1.408658453E1,-5.164309981E0,1.536195433E1
4.579758708E0,3.330331961E0,-1.228326931E1,-6.042343086E0,1.408828328E1
4.589739708E0,3.869832914E0,-1.105081658E1,-6.672539032E0,1.347660681E1
4.599719708E0,4.786978630E0,-1.113317812E1,-7.000563737E0,1.399538182E1
4.609699708E0,6.739725879E0,-1.147166876E1,-8.434555369E0,1.575324771E1
4.619679125E0,1.048526687E1,-1.250281121E1,-1.169398926E1,2.007512127E1
4.629659125E0,1.363190153E1,-1.268381762E1,-1.481585511E1,2.379532583E1
4.639639125E0,1.495816933E1,-1.129672475E1,-1.619766561E1,2.477351793E1
4.649620125E0,1.710058213E1,-9.520935293E0,-1.554241025E1,2.499289167E1
4.659600125E0,1.841936548E1,-7.848182550E0,-1.360235672E1,2.420518751E1
4.669580125E0,1.912829828E1,-7.171229929E0,-1.057471407E1,2.300310656E1
4.679560125E0,2.007511920E1,-7.407146369E0,-7.816918073E0,2.278114212E1
4.689540125E0,2.071787087E1,-6.703998806E0,-7.221833487E0,2.294185373E1
4.699520125E0,2.102117063E1,-6.440608639E0,-7.516407441E0,2.323504756E1
4.709501125E0,2.091710656E1,-6.033251250E0,-8.418218833E0,2.334077710E1
4.719481125E0,1.989194698E1,-5.347688604E0,-8.375831198E0,2.223604903E1
4.729461125E0,1.846481940E1,-5.432563278E0,-6.696282236E0,2.037897188E1
4.739441125E0,1.752329606E1,-5.391311756E0,-3.901809583E0,1.874449960E1
4.749421125E0,1.860475262E1,-5.145163858E0,-1.405281803E0,1.935418167E1
4.759401125E0,2.240060130E1,-5.454196222E0,-6.106130362E-2,2.305512793E1
4.769382125E0,2.603551122E1,-5.100172457E0,1.038905795E0,2.655068603E1
4.779362125E0,2.699054631E1,-4.390914262E0,2.256443444E0,2.743831728E1
4.789342125E0,2.587001864E1,-4.034497816E0,3.989805501E0,2.648496904E1
4.799322125E0,2.382257632E1,-4.819951664E0,6.231137400E0,2.509131623E1
4.809302125E0,2.175019212E1,-6.183887220E0,8.617510654E0,2.419861170E1
4.819282125E0,1.992428442E1,-6.391959220E0,1.056288866E1,2.343947246E1
4.829263125E0,1.898112152E1,-6.284093878E0,1.144544634E1,2.303846896E1
4.839243125E0,1.882964355E1,-6.984073420E0,1.201135156E1,2.340096845E1
4.849223125E0,1.866367151E1,-7.437904478E0,1.189486099E1,2.334829277E1
4.859203125E0,1.842146112E1,-7.868256041E0,1.131961426E1,2.300854950E1
4.869183125E0,1.854621849E1,-8.701916966E0,1.092974648E1,2.321949476E1
4.879164125E0,1.893700779E1,-9.582079042E0,1.094245598E1,2.387810390E1
4.889144125E0,1.956533438E1,-1.075673438E1,1.084026303E1,2.481976927E1
4.899124125E0,1.938357836E1,-1.182998847E1,1.138595910E1,2.540298805E1
4.909104125E0,1.902650059E1,-1.290807237E1,1.170897801E1,2.580167094E1
4.919084125E0,1.856651183E1,-1.445649693E1,1.176741859E1,2.630927224E1
4.929064125E0,1.771064435E1,-1.628460552E1,1.285237413E1,2.727707501E1
4.939045125E0,1.581922796E1,-1.723376299E1,1.424283149E1,2.738811437E1
4.949025125E0,1.338820596E1,-1.623448319E1,1.482531708E1,2.574087274E1
4.959005125E0,1.184628116E1,-1.527223264E1,1.452731841E1,2.417888432E1
4.968985125E0,1.112255841E1,-1.458994443E1,1.400784943E1,2.308240953E1
4.978965125E0,1.107559825E1,-1.433468540E1,1.358487589E1,2.264290032E1
4.988946125E0,1.157192746E1,-1.416576168E1,1.305957957E1,2.247511797E1
4.998926125E0,1.197432232E1,-1.379563761E1,1.199038111E1,2.185116132E1
5.008906125E0,1.247048429E1,-1.378529622E1,1.085435482E1,2.152590042E1
5.018886125E0,1.296322331E1,-1.385186209E1,9.729107280E0,2.132075914E1
5.028866125E0,1.308914544E1,-1.402798491E1,8.347991434E0,2.092364810E1
5.038847125E0,1.297891373E1,-1.459398369E1,7.278519319E0,2.084258633E1
5.048827125E0,1.282113129E1,-1.512308887E1,6.628256899E0,2.090509541E1
5.058807125E0,1.251876475E1,-1.593263471E1,5.865550182E0,2.109438311E1
5.068787125E0,1.198719204E1,-1.698923944E1,5.091350763E0,2.140674853E1
5.078767125E0,1.112030957E1,-1.779074653E1,4.620278312E0,2.148299138E1
5.088747125E0,9.491691613E0,-1.822955434E1,4.633065296E0,2.106832113E1
5.098728125E0,6.841313649E0,-1.852042291E1,5.011218181E0,2.036963291E1
5.108708125E0,3.606181376E0,-1.825046515E1,5.642608713E0,1.944024319E1
5.118688125E0,7.640536228E-1,-1.829259785E1,6.291469556E0,1.935937765E1
5.128668125E0,-1.707947865E0,-1.859282430E1,5.795164323E0,1.954978596E1
5.138648125E0,-3.563304913E0,-1.873584252E1,4.841578175E0,1.967663122E1
5.148629125E0,-4.716007465E0,-1.871148653E1,4.481691992E0,1.981025032E1
5.158609125E0,-4.936095493E0,-1.858804596E1,4.530775859E0,1.975875556E1
5.168589125E0,-3.992063403E0,-1.879637290E1,4.631806390E0,1.976597670E1
5.178569125E0,-2.772028408E0,-1.906153711E1,5.251469747E0,1.996507633E1
5.188549125E0,-1.991751978E0,-1.911277743E1,5.707515146E0,2.004597382E1
5.198530125E0,-2.143840396E0,-1.879191732E1,7.015201657E0,2.017288434E1
5.208510125E0,-3.193421745E0,-1.802654486E1,8.869767723E0,2.034273928E1
5.218490125E0,-4.145490541E0,-1.748312568E1,1.010920670E1,2.061651851E1
5.228470125E0,-4.546394942E0,-1.822909708E1,9.523427961E0,2.106336553E1
5.238450125E0,-5.493109442E0,-1.976680721E1,7.483916218E0,2.183826735E1
5.248431125E0,-6.916580179E0,-2.086519966E1,4.578587372E0,2.245348749E1
5.258411125E0,-8.669271376E0,-2.204787621E1,1.359758890E0,2.373002435E1
5.268391125E0,-1.184499477E1,-2.097084247E1,-2.070677403E0,2.417370141E1
5.278371125E0,-1.398012428E1,-1.878506204E1,-4.725596899E0,2.388835902E1
5.288352125E0,-1.436915240E1,-1.790538353E1,-5.879442582E0,2.369901148E1
5.298332125E0,-1.416862331E1,-1.735197030E1,-6.480663235E0,2.332037211E1
5.308312125E0,-1.321572245E1,-1.682312356E1,-6.424303678E0,2.233706525E1
5.318292125E0,-1.167852337E1,-1.658971791E1,-5.623475454E0,2.105303125E1
5.328272125E0,-1.047836365E1,-1.564482306E1,-3.663385271E0,1.918272622E1
5.338253125E0,-9.063114095E0,-1.514486624E1,-9.161107582E-1,1.767332084E1
5.348233125E0,-7.475404426E0,-1.488024816E1,1.956445613E0,1.676696562E1
5.358213125E0,-5.554029828E0,-1.413527430E1,4.880315394E0,1.595213795E1
5.368193125E0,-2.307088810E0,-1.400845287E1,7.008382634E0,1.583277732E1
5.378173125E0,9.228371027E-1,-1.341329987E1,7.584118198E0,1.543655047E1
5.388154125E0,3.119674907E0,-1.205415084E1,6.568617638E0,1.407770087E1
5.398134125E0,4.731568075E0,-1.075835991E1,5.050579882E0,1.279212263E1
5.408114125E0,5.543340533E0,-1.018124440E1,4.241540998E0,1.234410920E1
5.418094125E0,6.100044580E0,-9.839507389E0,4.618194072E0,1.246411513E1
5.428074125E0,6.028106285E0,-8.934429742E0,7.024266595E0,1.286477444E1
5.438055125E0,6.633987755E0,-8.125891380E0,1.109905494E1,1.527183437E1
5.448035125E0,7.884135325E0,-6.679603053E0,1.628323493E1,1.928523857E1
5.458015125E0,9.571105573E0,-6.054660246E0,2.239235673E1,2.509347749E1
5.467995125E0,1.161320295E1,-8.820619537E0,2.712619703E1,3.079773332E1
5.477976125E0,1.298736880E1,-1.101101108E1,2.880782819E1,3.346348873E1
5.487956125E0,1.547285762E1,-1.158245596E1,2.629217826E1,3.263190535E1
5.497936125E0,2.045764171E1,-1.149785727E1,1.939107215E1,3.044223227E1
5.507916125E0,2.417663692E1,-1.141384681E1,1.053449224E1,2.873606095E1
5.517896125E0,2.557551076E1,-1.156972189E1,2.473738257E0,2.817950667E1
5.527877125E0,2.521333189E1,-1.202996325E1,-2.809518709E0,2.807713511E1
5.537857125E0,2.477352538E1,-1.135355851E1,-4.405261867E0,2.760502097E1
5.547837125E0,2.472411874E1,-9.731994635E0,-2.615470671E0,2.669895979E1
5.557817125E0,2.435153416E1,-8.088755128E0,1.297987150E0,2.569260489E1
5.567798125E0,2.419339271E1,-7.667198946E0,5.049642574E0,2.587672855E1
5.577778125E0,2.428451338E1,-8.171188005E0,6.539696724E0,2.644378068E1
5.587758125E0,2.490386215E1,-9.817780305E0,5.052314751E0,2.724182528E1
5.597738125E0,2.530761239E1,-1.022917052E1,3.387805413E0,2.750615204E1
5.607718125E0,2.657732124E1,-1.044125137E1,2.805729128E0,2.869226116E1
5.617699125E0,2.734522905E1,-1.088315820E1,2.090242771E0,2.950548761E1
5.627679458E0,2.629044514E1,-1.107914517E1,1.340798709E0,2.856103473E1
5.637659458E0,2.470776993E1,-1.124087916E1,5.305832188E-1,2.714982095E1
5.647639458E0,2.348801735E1,-1.121907021E1,-4.180018057E-1,2.603323301E1
5.657620458E0,2.245595339E1,-1.132047964E1,-1.047723981E0,2.516983964E1
5.667600458E0,2.186627104E1,-1.173338078E1,-1.543994277E0,2.486342599E1
5.677580458E0,2.094737409E1,-1.219023075E1,-1.642900953E0,2.429183670E1
5.687560458E0,1.989059978E1,-1.287981395E1,-1.625412808E0,2.375221114E1
5.697540458E0,1.876723037E1,-1.338905497E1,-1.340839639E0,2.309271703E1
5.707521458E0,1.844977568E1,-1.370057474E1,-8.038284302E-2,2.298056641E1
5.717501458E0,1.841947892E1,-1.441481564E1,5.931152433E-1,2.339692072E1
5.727481458E0,1.932884140E1,-1.468833904E1,-5.076324588E-1,2.428186781E1
5.737461458E0,2.051330019E1,-1.494989552E1,-2.340249832E0,2.549061846E1
5.747442458E0,2.126603798E1,-1.540312607E1,-4.153464681E0,2.658480643E1
5.757422458E0,2.103215871E1,-1.628793960E1,-5.470946156E0,2.715842279E1
5.767402458E0,1.991880909E1,-1.671148968E1,-6.131517218E0,2.671382314E1
5.777382458E0,1.878852593E1,-1.695761536E1,-6.806668897E0,2.620878034E1
5.787363458E0,1.784402753E1,-1.684162181E1,-7.649414055E0,2.570142173E1
5.797343458E0,1.707774407E1,-1.613780883E1,-8.646739131E0,2.503685911E1
5.807323458E0,1.687422471E1,-1.516901174E1,-9.625854807E0,2.464742294E1
5.817303458E0,1.682840827E1,-1.465220792E1,-1.056817571E1,2.468944835E1
5.827284458E0,1.644030635E1,-1.473785560E1,-1.189221454E1,2.507813444E1
5.837264458E0,1.521495097E1,-1.487624048E1,-1.296749411E1,2.491893191E1
5.847244458E0,1.360927515E1,-1.527440546E1,-1.384759713E1,2.470376041E1
5.857224458E0,1.224984896E1,-1.541644719E1,-1.465195649E1,2.454394982E1
5.867205458E0,1.147922687E1,-1.550078860E1,-1.507403541E1,2.448006619E1
5.877185458E0,1.026885323E1,-1.574399886E1,-1.537852566E1,2.428624916E1
5.887165458E0,8.466618576E0,-1.604337045E1,-1.562380934E1,2.394111075E1
5.897145458E0,6.885545497E0,-1.650378372E1,-1.581864090E1,2.387498720E1
5.907126458E0,5.409934554E0,-1.687906504E1,-1.595695796E1,2.384941793E1
5.917106458E0,3.932474428E0,-1.742330984E1,-1.602035932E1,2.399349899E1
5.927086458E0,2.313626143E0,-1.749437105E1,-1.581668092E1,2.369753742E1
5.937066458E0,1.081826989E0,-1.728395782E1,-1.548899827E1,2.323391089E1
5.947047458E0,5.004509085E-1,-1.669863283E1,-1.480716147E1,2.232368295E1
5.957027458E0,9.019976992E-1,-1.589451204E1,-1.416517696E1,2.130965394E1
5.967007458E0,1.559975594E0,-1.604845987E1,-1.323461597E1,2.086004909E1
5.976987458E0,2.614515601E-1,-1.479748082E1,-1.144884591E1,1.871122306E1
5.986968458E0,-1.621094200E0,-1.317382013E1,-9.474960390E0,1.630804580E1
5.996948458E0,-3.194423373E0,-1.182719351E1,-7.178198056E0,1.419906244E1
6.006928458E0,-4.156135397E0,-1.041986225E1,-5.186157517E0,1.235893283E1
6.016908458E0,-4.192698621E0,-8.952463725E0,-3.780028453E0,1.058366400E1
6.026889458E0,-3.346973721E0,-7.757344301E0,-3.048213746E0,8.981660800E0
6.036869458E0,-8.660590307E-1,-6.457650933E0,-3.546121700E0,7.417970945E0
6.046849458E0,1.681216587E0,-4.334288363E0,-4.360116100E0,6.373629832E0
6.056829458E0,3.589185859E0,-1.812223454E0,-3.287368374E0,5.193572933E0
6.066810458E0,4.731316060E0,-4.961713314E-1,-1.425725423E0,4.966309559E0
6.076790458E0,5.634973419E0,6.964133245E-1,4.130648553E-1,5.692849860E0
6.086770458E0,7.470606785E0,1.269610028E0,2.468331336E0,7.969600677E0
6.096750458E0,1.036507501E1,7.805629438E-1,5.013091629E0,1.154015365E1
6.106731458E0,1.325816388E1,-3.654503936E-1,8.339943327E0,1.566739028E1
6.116711458E0,1.515742139E1,-1.819211462E0,1.250863387E1,1.973633387E1
6.126691458E0,1.443036924E1,-3.849404497E0,1.687066025E1,2.253159223E1
6.136671458E0,1.204595422E1,-6.658298138E0,1.974612678E1,2.406963793E1
6.146652458E0,9.502316589E0,-9.293884985E0,2.114156012E1,2.497270276E1
6.156632458E0,7.313742362E0,-1.229404105E1,2.159496258E1,2.590321759E1
6.166612458E0,5.998234615E0,-1.542137640E1,2.321729361E1,2.851035585E1
6.176592458E0,5.061546335E0,-1.675242370E1,2.630452992E1,3.159416474E1
6.186573458E0,3.531561549E0,-1.609415235E1,2.858406694E1,3.299306821E1
6.196553458E0,2.490247285E0,-1.603000489E1,2.971432203E1,3.385414778E1
6.206533458E0,1.921845884E0,-1.607625753E1,2.999874229E1,3.408906111E1
6.216514458E0,1.253567022E0,-1.520576500E1,2.970513956E1,3.339434137E1
6.226494458E0,-7.100449383E-2,-1.398957572E1,2.805994592E1,3.135400828E1
6.236474458E0,-1.920552480E0,-1.375438433E1,2.505995942E1,2.865088439E1
6.246454458E0,-4.871858274E0,-1.274299144E1,2.119970951E1,2.521004794E1
6.256435458E0,-7.282040513E0,-1.230583372E1,1.656625537E1,2.188384049E1
6.266415458E0,-8.897672390E0,-1.254596834E1,1.200036348E1,1.950842431E1
6.276395458E0,-9.836490226E0,-1.277037278E1,9.027524432E0,1.847525800E1
6.286375458E0,-1.033411634E1,-1.229043332E1,7.628520784E0,1.777759942E1
6.296356458E0,-9.835071691E0,-1.234428734E1,6.323184854E0,1.700272719E1
6.306336458E0,-8.542087419E0,-1.250068633E1,4.832929266E0,1.589313127E1
6.316316458E0,-7.404441447E0,-1.106362432E1,3.769427743E0,1.383611657E1
6.326297458E0,-5.961003639E0,-9.049887108E0,5.332208101E0,1.207751896E1
6.336277458E0,-3.695871232E0,-7.634322392E0,7.957544194E0,1.163034188E1
6.346257458E0,-1.291736476E0,-6.497982688E0,1.037566081E1,1.231043051E1
6.356237458E0,2.144242392E0,-5.975501810E0,1.104309241E1,1.273790749E1
6.366218458E0,6.978082947E0,-6.076025387E0,8.899677985E0,1.283806817E1
6.376198458E0,1.267088124E1,-6.022851977E0,5.665792338E0,1.513033972E1
6.386178458E0,1.791534719E1,-5.035425653E0,2.755434303E0,1.881243192E1
6.396158458E0,2.120666068E1,-4.311885634E0,2.301179614E0,2.176258814E1
6.406139458E0,2.139598884E1,-5.050092224E0,3.876230353E0,2.232301350E1
6.416119458E0,1.968760317E1,-7.231510629E0,4.353609026E0,2.142079308E1
6.426099458E0,1.931484785E1,-1.072676389E1,2.760388649E0,2.226536675E1
6.436080458E0,2.057227754E1,-1.355438149E1,1.100119273E-1,2.463639510E1
6.446060458E0,2.288124009E1,-1.379345075E1,-2.044841919E0,2.679536919E1
6.456040458E0,2.663189447E1,-1.215137484E1,-3.802529123E0,2.951902677E1
6.466020458E0,3.009587858E1,-9.318419902E0,-5.794830447E0,3.203396505E1
6.476001458E0,3.193396018E1,-7.264817539E0,-8.191117655E0,3.375869954E1
6.485981458E0,3.118256958E1,-6.571112645E0,-1.053038048E1,3.356219718E1
6.495961458E0,2.857741047E1,-5.975895327E0,-1.172336918E1,3.146135882E1
6.505942458E0,2.572083512E1,-5.933796544E0,-1.135295625E1,2.873431601E1
6.515922458E0,2.181683400E1,-6.921293035E0,-9.901843386E0,2.493842508E1
6.525902458E0,1.789895510E1,-8.281615012E0,-8.677800125E0,2.154673887E1
6.535882458E0,1.511723464E1,-9.522329854E0,-8.230334930E0,1.967089124E1
6.545863458E0,1.294766036E1,-1.036994107E1,-8.462889222E0,1.862251542E1
6.555843458E0,1.136947580E1,-1.064529113E1,-9.315701532E0,1.814853984E1
6.565823458E0,1.032469882E1,-1.033040687E1,-1.035979965E1,1.790648376E1
6.575804458E0,1.014326089E1,-1.004809160E1,-1.159170274E1,1.839068946E1
6.585784458E0,9.700548894E0,-1.074708647E1,-1.304001596E1,1.948441769E1
6.595764458E0,7.432297583E0,-1.290358054E1,-1.428840469E1,2.063734350E1
6.605744458E0,3.417052016E0,-1.525301635E1,-1.475295194E1,2.149372799E1
6.615725458E0,-6.348234326E-1,-1.617139641E1,-1.398807883E1,2.139119940E1
6.625706375E0,-3.232097569E0,-1.744227353E1,-1.311565671E1,2.206127402E1
6.635686375E0,-5.711781859E0,-1.854550045E1,-1.241103799E1,2.303462400E1
6.645667375E0,-8.705549841E0,-1.841351359E1,-1.188099140E1,2.357969545E1
6.655647375E0,-1.138038671E1,-1.850088970E1,-1.189846405E1,2.476629904E1
6.665627375E0,-1.503512102E1,-1.866087888E1,-1.246150882E1,2.701059915E1
6.675607375E0,-1.934125855E1,-1.786108503E1,-1.258513650E1,2.918027247E1
6.685588375E0,-2.415221427E1,-1.661852129E1,-1.163355360E1,3.154115207E1
6.695568375E0,-2.856740705E1,-1.541765055E1,-1.036317350E1,3.407632696E1
6.705548375E0,-3.122343693E1,-1.452833817E1,-7.829883689E0,3.531688976E1
6.715529375E0,-3.233388166E1,-1.417079028E1,-3.061400679E0,3.543534076E1
6.725509375E0,-3.340047694E1,-1.329139946E1,3.549918590E0,3.612277788E1
6.735489375E0,-3.336714548E1,-1.256572374E1,1.008863386E1,3.705461299E1
6.745469375E0,-3.211051568E1,-1.227961129E1,1.349865518E1,3.693355876E1
6.755450375E0,-2.941584740E1,-1.211960574E1,1.477142446E1,3.507665751E1
6.765430375E0,-2.424566681E1,-1.181869282E1,1.683199612E1,3.179386659E1
6.775410375E0,-1.626431919E1,-1.201837758E1,2.058476485E1,2.885657676E1
6.785391375E0,-7.349702153E0,-1.182479381E1,2.550053309E1,2.905376151E1
6.795371375E0,2.405215321E0,-1.018093333E1,2.854691373E1,3.040333448E1
6.805351375E0,1.230202016E1,-7.072141843E0,2.779798832E1,3.121030350E1
6.815332375E0,1.933431674E1,-4.516049062E0,2.479949169E1,3.176830639E1
6.825312375E0,2.381648118E1,-4.195767240E0,2.004719991E1,3.141209103E1
6.835292375E0,2.690437238E1,-3.967045214E0,1.459873630E1,3.086593272E1
6.845273375E0,3.061909445E1,-2.610473056E0,1.099100191E1,3.263656902E1
6.855253375E0,3.421483972E1,-1.013262246E0,1.003869045E1,3.567151894E1
6.865233375E0,3.702063083E1,2.835934675E-1,9.361003420E0,3.818685529E1
6.875213375E0,3.896707068E1,1.570833435E0,6.900980392E0,3.960459122E1
6.885194375E0,3.962920938E1,1.766522201E0,3.081851023E0,3.978809675E1
6.895174375E0,3.862491501E1,1.380148716E0,-1.080212865E0,3.866465738E1
6.905154375E0,3.640165393E1,1.117385370E0,-3.891672265E0,3.662613919E1
6.915135375E0,3.240379799E1,4.011412132E-1,-4.932416425E0,3.277950228E1
6.925115375E0,2.705452654E1,-1.431061007E0,-5.457522118E0,2.763656798E1
6.935095375E0,2.240659353E1,-4.024130995E0,-6.458170751E0,2.366341128E1
6.945076375E0,1.860737218E1,-6.140602621E0,-6.750871257E0,2.072475724E1
6.955056375E0,1.566611511E1,-7.400483467E0,-5.333674582E0,1.812849698E1
6.965036375E0,1.424563932E1,-8.430330171E0,-2.160702889E0,1.669363182E1
6.975017375E0,1.375550115E1,-1.007349659E1,7.209995507E-1,1.706484649E1
6.984997375E0,1.342536384E1,-1.202108016E1,1.027707793E0,1.805001235E1
6.994977375E0,1.159473979E1,-1.287754756E1,-1.697353148E-1,1.732910938E1
7.004957375E0,1.006882817E1,-1.289663054E1,-2.731971180E0,1.658818997E1
7.014938375E0,8.340344446E0,-1.391663989E1,-5.741918993E0,1.721057364E1
7.024918375E0,5.064875740E0,-1.528344759E1,-7.574988356E0,1.779374006E1
7.034898375E0,1.615478388E0,-1.704562298E1,-8.700563335E0,1.920580213E1
7.044879375E0,-2.279004341E0,-1.886332352E1,-8.707972927E0,2.090090016E1
7.054859375E0,-7.144211115E0,-2.002801871E1,-8.053519807E0,2.273808407E1
7.064839375E0,-1.166894446E1,-1.948478665E1,-7.163235615E0,2.381455689E1
7.074820375E0,-1.438317051E1,-1.838470670E1,-6.045630391E0,2.411270788E1
7.084800375E0,-1.648608186E1,-1.792842156E1,-5.790572505E0,2.503497403E1
7.094780375E0,-1.917162849E1,-1.827795408E1,-5.855557290E0,2.712789147E1
7.104761375E0,-2.154944317E1,-1.889148722E1,-4.363588761E0,2.898806129E1
7.114741375E0,-2.312511342E1,-1.943552502E1,-7.942496677E-1,3.021822854E1
7.124721375E0,-2.354423482E1,-1.973447913E1,3.531621190E0,3.092334083E1
7.134702375E0,-2.312367969E1,-1.924710902E1,7.446336747E0,3.099360739E1
7.144682375E0,-2.187414607E1,-1.840015855E1,1.137462252E1,3.076403970E1
7.154662375E0,-1.953367288E1,-1.730720402E1,1.596704558E1,3.059493800E1
7.164643375E0,-1.644841877E1,-1.633226033E1,1.922543924E1,3.011495844E1
7.174623375E0,-1.314570555E1,-1.570465879E1,2.128080805E1,2.953504145E1
7.184603375E0,-9.747321941E0,-1.455990611E1,2.233086975E1,2.838430719E1
7.194584375E0,-4.612824866E0,-1.275008528E1,2.205141728E1,2.588644108E1
7.204564375E0,3.049334072E0,-1.038848843E1,2.215952060E1,2.466299827E1
7.214544375E0,1.012997250E1,-8.348993062E0,2.414383171E1,2.748175099E1
7.224525375E0,1.431748523E1,-7.057876391E0,2.790295753E1,3.214621349E1
7.234505375E0,1.738342013E1,-7.714376037E0,3.144714673E1,3.675075415E1
7.244485375E0,1.995620554E1,-1.056766583E1,3.212049103E1,3.926387201E1
7.254466375E0,2.175269005E1,-1.294916192E1,2.960320388E1,3.895137994E1
7.264446375E0,2.549877424E1,-1.233868805E1,2.529732831E1,3.797875104E1
7.274426375E0,2.992608245E1,-8.493478931E0,2.143422729E1,3.777744956E1
7.284407375E0,3.172152615E1,-4.418160240E0,1.826506565E1,3.686987910E1
7.294387375E0,3.108681791E1,-1.628589308E0,1.516454680E1,3.462666647E1
7.304367375E0,2.865352718E1,-5.096614426E-1,1.155349353E1,3.089931371E1
7.314348375E0,2.611733014E1,-1.183936039E0,7.123050041E0,2.709713048E1
7.324328375E0,2.440117936E1,-2.226308064E0,2.450270310E0,2.462474013E1
7.334308375E0,2.343513280E1,-2.781652048E0,-1.290661320E0,2.363490732E1
7.344289375E0,2.208817054E1,-2.981298795E0,-3.391967461E0,2.254508513E1
7.354269375E0,2.097518812E1,-2.904163495E0,-4.887633770E0,2.173204192E1
7.364249375E0,2.024510478E1,-2.843811459E0,-6.883618255E0,2.157164183E1
7.374230375E0,2.055044638E1,-2.640584462E0,-8.984133414E0,2.258336082E1
7.384210375E0,2.147609804E1,-2.638255516E0,-1.082385106E1,2.419377876E1
7.394190375E0,2.213935239E1,-2.977434955E0,-1.242752948E1,2.556285453E1
7.404171375E0,2.169961370E1,-3.886488124E0,-1.366788413E1,2.593817807E1
7.414151375E0,1.999563917E1,-5.048753797E0,-1.389259730E1,2.486603628E1
7.424131375E0,1.758468948E1,-5.958106928E0,-1.266474868E1,2.247479035E1
7.434112375E0,1.510645238E1,-6.696596231E0,-1.120365228E1,1.996424626E1
7.444092375E0,1.234308867E1,-7.375695950E0,-1.081720628E1,1.799346216E1
7.454072375E0,9.682148876E0,-7.515718054E0,-1.106324776E1,1.651137413E1
7.464053375E0,7.560584325E0,-7.777727695E0,-1.182330511E1,1.604512471E1
7.474033375E0,5.523477541E0,-7.992701747E0,-1.263283691E1,1.593677049E1
7.484013375E0,3.451452063E0,-8.021211017E0,-1.277320400E1,1.547278540E1
7.493994375E0,1.795703316E0,-8.384219028E0,-1.238505179E1,1.506350514E1
7.503974375E0,2.172693774E-1,-8.921397468E0,-1.153972801E1,1.458779837E1
7.513954375E0,-1.071598747E0,-9.231846027E0,-1.037675190E1,1.393026507E1
7.523935375E0,-2.121469534E0,-9.778050814E0,-8.950028944E0,1.342437815E1
7.533915375E0,-3.074099662E0,-1.005470831E1,-7.196206895E0,1.274098276E1
7.543895375E0,-3.379378406E0,-1.071054722E1,-5.285693500E0,1.241267804E1
7.553876375E0,-3.880545598E0,-1.158635839E1,-3.495494753E0,1.270908409E1
7.563856375E0,-4.563550380E0,-1.181070904E1,-1.882077801E0,1.280082251E1
7.573836375E0,-5.270802981E0,-1.125228825E1,-3.315634400E-1,1.243001565E1
7.583817375E0,-5.464441128E0,-1.060792976E1,1.738022872E0,1.205856601E1
7.593797375E0,-5.676218508E0,-9.965364028E0,4.697048453E0,1.239315137E1
7.603777375E0,-5.731218588E0,-9.115556602E0,7.297873603E0,1.300765920E1
7.613758375E0,-4.752496137E0,-8.358436900E0,9.232153006E0,1.332975379E1
7.623737083E0,-2.671585815E0,-7.116302939E0,1.123755326E1,1.356693560E1
7.633717083E0,6.416620436E-1,-6.805440981E0,1.317297930E1,1.484092790E1
7.643698083E0,2.551479035E0,-6.533534929E0,1.524815029E1,1.678401654E1
7.653678083E0,1.756864648E0,-6.070251262E0,1.797420409E1,1.905273042E1
7.663658083E0,5.873115894E-1,-6.373232342E0,2.085207617E1,2.181220085E1
7.673639083E0,-8.816358671E-3,-6.533485227E0,2.318354114E1,2.408657482E1
7.683619083E0,9.102151568E-1,-6.793431385E0,2.537113654E1,2.628067296E1
7.693600083E0,2.765698505E0,-7.549469937E0,2.719968484E1,2.836311760E1
7.703580083E0,4.097824916E0,-8.279753843E0,2.787033475E1,2.936157441E1
7.713560083E0,4.532444655E0,-9.513082482E0,2.723476346E1,2.920229671E1
7.723541083E0,4.440643077E0,-1.162125340E1,2.507327002E1,2.799002878E1
7.733521083E0,4.266143158E0,-1.414433748E1,2.144982767E1,2.604529453E1
7.743501083E0,3.991487160E0,-1.630082803E1,1.694209685E1,2.384708809E1
7.753482083E0,4.177305826E0,-1.751139931E1,1.216970118E1,2.173017756E1
7.763462083E0,4.212476243E0,-1.780620774E1,7.649945567E0,1.983248994E1
7.773442083E0,3.514757528E0,-1.711294782E1,3.786651009E0,1.787582807E1
7.783423083E0,3.296467519E0,-1.757434810E1,3.456675088E-1,1.788418002E1
7.793403083E0,1.681341718E0,-1.749970839E1,-1.996155078E0,1.769325687E1
7.803383083E0,-1.723881381E0,-1.703860749E1,-3.078266680E0,1.740004706E1
7.813364083E0,-5.528165839E0,-1.693261735E1,-3.528538831E0,1.815832410E1
7.823344083E0,-8.641587734E0,-1.700463633E1,-4.572031766E0,1.961474369E1
7.833325083E0,-1.036690753E1,-1.685946868E1,-4.528430541E0,2.030322977E1
7.843305083E0,-1.056235539E1,-1.719152738E1,-2.763383300E0,2.036536895E1
7.853285083E0,-9.678735856E0,-1.779384789E1,-6.095950359E-1,2.026500818E1
7.863266083E0,-7.082061059E0,-1.777845685E1,9.782923883E-1,1.916210252E1
7.873246083E0,-6.440009884E0,-1.866479651E1,-3.056123275E-1,1.974694293E1
7.883226083E0,-4.738798450E0,-1.917244593E1,-3.613820763E0,2.007731541E1
7.893207083E0,-5.678777835E-1,-1.901044531E1,-6.402322825E0,2.006761704E1
7.903187083E0,1.914445648E0,-1.792372976E1,-9.453852527E0,2.035437344E1
7.913167083E0,3.399374714E0,-1.391477229E1,-1.119539016E1,1.818002742E1
7.923148083E0,5.028792572E0,-1.075747113E1,-1.018154845E1,1.564211842E1
7.933128083E0,6.016748069E0,-9.582964311E0,-9.238075066E0,1.460741227E1
7.943108083E0,5.799847358E0,-9.240529727E0,-9.887448710E0,1.472369726E1
7.953089083E0,4.713880833E0,-9.648316886E0,-1.149072834E1,1.572728613E1
7.963069083E0,3.820985275E0,-9.864104286E0,-1.313671253E1,1.686634809E1
7.973050083E0,4.481204334E0,-9.578229235E0,-1.385361158E1,1.742831665E1
7.983030083E0,5.925732064E0,-9.407781145E0,-1.425974514E1,1.808206233E1
7.993010083E0,7.057723778E0,-8.378571203E0,-1.477287340E1,1.839156624E1
8.002991083E0,8.554536726E0,-7.303683981E0,-1.511301763E1,1.883951168E1
8.012971083E0,9.726825696E0,-6.578142167E0,-1.535731196E1,1.933210085E1
8.022951083E0,1.077316506E1,-6.504988237E0,-1.518966761E1,1.972566753E1
8.032932083E0,1.199244518E1,-6.763677828E0,-1.422924139E1,1.979993408E1
8.042912083E0,1.306637755E1,-6.730517684E0,-1.280658576E1,1.949458205E1
8.052893083E0,1.360509556E1,-6.473947708E0,-1.134832175E1,1.886252980E1
8.062873083E0,1.371121784E1,-6.163182814E0,-1.030239169E1,1.822420346E1
8.072853083E0,1.365293280E1,-5.999156721E0,-9.372105528E0,1.761331364E1
8.082834083E0,1.387336581E1,-5.841951989E0,-7.774899981E0,1.694248363E1
8.092814083E0,1.407908840E1,-5.373442665E0,-5.769399737E0,1.613631276E1
8.102794083E0,1.439394108E1,-5.186182660E0,-3.665743161E0,1.573275893E1
8.112775083E0,1.457320736E1,-5.077510988E0,-1.602034032E0,1.551534736E1
8.122755083E0,1.473939224E1,-5.114652502E0,6.227753909E-1,1.561400663E1
8.132735083E0,1.474039680E1,-5.224697685E0,2.854225935E0,1.589727553E1
8.142716083E0,1.477552219E1,-5.569229665E0,3.309286662E0,1.613331191E1
8.152696083E0,1.472238269E1,-6.657011751E0,3.135726099E0,1.645895306E1
8.162677083E0,1.372388993E1,-7.828617182E0,2.470027614E0,1.599166777E1
8.172657083E0,1.267235707E1,-8.713928316E0,2.311180984E0,1.555193679E1
8.182637083E0,1.197266054E1,-9.098221947E0,2.506403142E0,1.524481222E1
8.192618083E0,1.173693588E1,-8.985106391E0,2.703338535E0,1.502650459E1
8.202598083E0,1.185075077E1,-9.028900282E0,2.520165149E0,1.511001544E1
8.212578083E0,1.155310878E1,-9.079957584E0,1.746877311E0,1.479768673E1
8.222559083E0,1.042402079E1,-9.406303554E0,5.124417937E-1,1.404995917E1
8.232539083E0,8.778029587E0,-1.029590830E1,-8.369681096E-1,1.355581229E1
8.242520083E0,6.976987179E0,-1.165994910E1,-1.813579423E0,1.370845847E1
8.252500083E0,4.521878736E0,-1.313632662E1,-2.312454507E0,1.408395932E1
8.262480083E0,1.318632207E0,-1.381835989E1,-2.595303040E0,1.412166629E1
8.272461083E0,-1.848169797E0,-1.363801304E1,-2.771266809E0,1.403891203E1
8.282441083E0,-4.854646702E0,-1.307414733E1,-3.379224624E0,1.434991575E1
8.292422083E0,-7.560246940E0,-1.252613224E1,-4.606301420E0,1.533881793E1
8.302402083E0,-9.602277664E0,-1.155508865E1,-5.944022155E0,1.615720302E1
8.312382083E0,-1.061037390E1,-1.042852315E1,-6.942289801E0,1.641735414E1
8.322363083E0,-1.122785039E1,-9.512215340E0,-7.292650870E0,1.642344732E1
8.332343083E0,-1.197346628E1,-8.841005269E0,-6.430376596E0,1.621348242E1
8.342323083E0,-1.257693168E1,-9.383839720E0,-4.076803883E0,1.621283406E1
8.352304083E0,-1.319901111E1,-1.064995487E1,-5.276176572E-1,1.696802326E1
8.362284083E0,-1.361090184E1,-1.153360013E1,3.338829427E0,1.815016151E1
8.372265083E0,-1.356469831E1,-1.194633052E1,6.733778676E0,1.928884726E1
8.382245083E0,-1.306120861E1,-1.175352677E1,9.741520334E0,2.009073867E1
8.392225083E0,-1.268564429E1,-1.136355842E1,1.156250526E1,2.058512955E1
8.402206083E0,-1.248686702E1,-1.176638363E1,1.208595151E1,2.098665899E1
8.412186083E0,-1.297385355E1,-1.241646537E1,1.214074109E1,2.167687898E1
8.422167083E0,-1.394380488E1,-1.254797978E1,1.200664572E1,2.227197864E1
8.432147083E0,-1.434742531E1,-1.295459983E1,1.185512098E1,2.267629078E1
8.442127083E0,-1.404884192E1,-1.320217094E1,1.168821571E1,2.254510287E1
8.452108083E0,-1.282810936E1,-1.307353220E1,1.145978605E1,2.160565505E1
8.462088083E0,-1.049561527E1,-1.323488729E1,1.066859930E1,1.997846822E1
8.472068083E0,-7.544198087E0,-1.359881331E1,9.444034467E0,1.819429678E1
8.482049083E0,-4.433710033E0,-1.415635000E1,8.092194461E0,1.689803661E1
8.492029083E0,-1.670966126E0,-1.402272007E1,6.305872418E0,1.546586024E1
8.502010083E0,8.122881818E-1,-1.401930530E1,2.906742117E0,1.434049800E1
8.511990083E0,2.524360526E0,-1.339184409E1,-3.446350367E-1,1.363204525E1
8.521970083E0,3.370849072E0,-1.156209010E1,-2.554502338E0,1.231137820E1
8.531951083E0,2.308207382E0,-1.003862145E1,-4.236969645E0,1.113793759E1
8.541931083E0,1.058810887E-1,-9.414156949E0,-5.059733698E0,1.068823966E1
8.551912083E0,-4.267555261E-1,-8.413934578E0,-6.342268996E0,1.054517858E1
8.561892083E0,-5.783033690E-1,-7.802105321E0,-8.439632506E0,1.150802672E1
8.571872083E0,1.266015744E0,-6.054531022E0,-9.958949633E0,1.172351567E1
8.581853083E0,4.547706472E0,-4.944684468E0,-1.107641920E1,1.295448189E1
8.591833083E0,7.374349337E0,-4.973155146E0,-1.155000976E1,1.457792940E1
8.601814083E0,7.529249681E0,-4.513599079E0,-1.141328782E1,1.439879565E1
8.611794083E0,7.121642032E0,-3.894545002E0,-1.096765280E1,1.364458406E1
8.621775375E0,7.007555838E0,-3.053229488E0,-1.108016259E1,1.346098258E1
8.631756375E0,6.196916571E0,-2.916322780E0,-1.213123001E1,1.393102491E1
8.641736375E0,4.191888489E0,-3.305118767E0,-1.356899251E1,1.458126527E1
8.651717375E0,2.475454707E0,-3.345706045E0,-1.314521789E1,1.378834212E1
8.661697375E0,1.435682647E0,-3.647830508E0,-1.036032824E1,1.107719519E1
8.671677375E0,4.174298018E-1,-3.498519518E0,-7.047460746E0,7.879123645E0
8.681658375E0,2.272140294E-1,-3.495266712E0,-4.552809630E0,5.744265934E0
8.691638375E0,-3.142662066E-1,-3.843356137E0,-3.616464289E0,5.286677936E0
8.701619375E0,-7.444119483E-1,-4.514755658E0,-4.104214461E0,6.146685622E0
8.711599375E0,8.912062973E-1,-5.168993601E0,-5.555956485E0,7.640771949E0
8.721579375E0,4.728164411E0,-4.810466895E0,-7.992416403E0,1.045824318E1
8.731560375E0,8.927946349E0,-4.119088608E0,-1.072979977E1,1.455347794E1
8.741540375E0,1.075351140E1,-3.780227843E0,-1.229829665E1,1.676831030E1
8.751521375E0,1.058470462E1,-2.824181771E0,-1.203843470E1,1.627685118E1
8.761501375E0,1.020273292E1,-2.222743601E0,-1.061106621E1,1.488727894E1
8.771481375E0,1.151892128E1,-2.023113812E0,-8.206970041E0,1.428750833E1
8.781462375E0,1.439783182E1,-1.913770879E0,-6.585797927E0,1.594781535E1
8.791442375E0,1.711882778E1,-1.700807099E0,-6.400129534E0,1.835507198E1
8.801423375E0,1.941286005E1,-7.271123761E-1,-6.392479622E0,2.045120102E1
8.811403375E0,2.179537238E1,-4.783057487E-1,-5.341083004E0,2.244536035E1
8.821383375E0,2.332257156E1,-1.584586963E0,-3.140750319E0,2.358638532E1
8.831364375E0,2.379970903E1,-3.797968003E0,2.625350711E0,2.424341513E1
8.841344375E0,2.318819085E1,-6.728930165E0,8.752155073E0,2.568211273E1
8.851325375E0,2.089114726E1,-8.296498514E0,1.661191511E1,2.795044982E1
8.861305375E0,1.914107562E1,-9.057455744E0,2.384220192E1,3.188838147E1
8.871285375E0,1.804398593E1,-8.937885447E0,3.090353109E1,3.688494894E1
8.881266375E0,1.619928061E1,-7.936025856E0,3.445882766E1,3.889483259E1
8.891246375E0,1.341061015E1,-7.278445644E0,3.377393627E1,3.706074752E1
8.901227375E0,1.061904649E1,-8.586688811E0,2.955652439E1,3.255892362E1
8.911207375E0,7.976938823E0,-1.003739120E1,2.467156865E1,2.780408378E1
8.921188375E0,6.439040415E0,-1.045553261E1,2.141108869E1,2.468226332E1
8.931168375E0,5.722050154E0,-1.001592490E1,1.979616257E1,2.291175817E1
8.941148375E0,5.125421319E0,-8.992478560E0,1.828788031E1,2.101383308E1
8.951129375E0,4.540657069E0,-8.142117988E0,1.697349289E1,1.936520366E1
8.961109375E0,3.946929915E0,-8.073783333E0,1.639808126E1,1.869923266E1
8.971090375E0,3.314232237E0,-8.511095422E0,1.647354309E1,1.883614883E1
8.981070375E0,2.387374004E0,-9.256102617E0,1.746963148E1,1.991388999E1
8.991050375E0,1.237193941E0,-1.002528980E1,1.902859507E1,2.154354926E1
9.001031375E0,-1.737488437E-1,-1.092505935E1,2.031830490E1,2.306990733E1
9.011011375E0,-2.057630949E0,-1.156266079E1,2.099626383E1,2.405768202E1
9.020992375E0,-3.905324344E0,-1.177732611E1,2.061686841E1,2.406267299E1
9.030972375E0,-5.021647274E0,-1.215952819E1,1.966658126E1,2.366105420E1
9.040953375E0,-5.781872433E0,-1.258415299E1,1.847054733E1,2.308575479E1
9.050933375E0,-6.846927561E0,-1.255837262E1,1.697218429E1,2.219567929E1
9.060913375E0,-7.696940224E0,-1.209387098E1,1.544686558E1,2.107392370E1
9.070894375E0,-7.805216040E0,-1.174928170E1,1.447088693E1,2.020825540E1
9.080874375E0,-7.454801762E0,-1.128916430E1,1.404328356E1,1.949956699E1
9.090855375E0,-6.656573210E0,-1.098380983E1,1.346582073E1,1.860866393E1
9.100835375E0,-5.438537378E0,-1.057935325E1,1.362828562E1,1.808951555E1
9.110815375E0,-3.522539880E0,-1.012292427E1,1.419864057E1,1.778997687E1
9.120796375E0,-1.788287146E0,-9.915687253E0,1.440695815E1,1.758065038E1
9.130776375E0,-7.391833681E-1,-9.646495478E0,1.403005599E1,1.704240999E1
9.140757375E0,-5.306554319E-1,-9.286968314E0,1.307919230E1,1.604975536E1
9.150737375E0,-6.842373750E-1,-8.955662152E0,1.237395729E1,1.529009105E1
9.160718375E0,-7.802860782E-1,-8.955187358E0,1.179678448E1,1.483133005E1
9.170698375E0,-9.981015124E-1,-9.003868352E0,1.126288106E1,1.445400781E1
9.180678375E0,-1.531622007E0,-8.629605035E0,1.063180394E1,1.377865030E1
9.190659375E0,-1.741329473E0,-8.427826978E0,9.920435193E0,1.313299396E1
9.200639375E0,-1.099944733E0,-8.303699945E0,9.853125554E0,1.293233909E1
9.210620375E0,-4.147762623E-2,-8.063836634E0,1.034435014E1,1.311612601E1
9.220600375E0,7.186902659E-1,-6.941564746E0,1.112831558E1,1.313549559E1
9.230581375E0,1.437542061E0,-6.463275955E0,1.154122490E1,1.330565051E1
9.240561375E0,2.207516721E0,-6.682251842E0,1.099991657E1,1.305847557E1
9.250541375E0,2.986433820E0,-6.866383002E0,9.600999463E0,1.217559827E1
9.260522375E0,4.314625639E0,-6.489293141E0,7.843217679E0,1.105635489E1
9.270502375E0,6.037596316E0,-5.964057639E0,5.669555606E0,1.020619486E1
9.280483375E0,8.095017496E0,-5.629984574E0,3.473119798E0,1.045411860E1
9.290463375E0,9.248653849E0,-5.165864171E0,7.821381837E-1,1.062240513E1
9.300444375E0,8.742234102E0,-5.650038185E0,-1.679891024E0,1.054379545E1
9.310424375E0,8.279581935E0,-7.797320545E0,-3.744476212E0,1.197375408E1
9.320405375E0,6.981169108E0,-9.889180655E0,-6.766117287E0,1.386769481E1
9.330385375E0,6.894894610E0,-1.034634989E1,-7.637206239E0,1.459155396E1
9.340365375E0,7.031708347E0,-9.511973265E0,-7.339442629E0,1.392084681E1
9.350346375E0,8.039536775E0,-7.539615040E0,-6.109422344E0,1.260178511E1
9.360326375E0,1.038053622E1,-6.251908464E0,-4.666561071E0,1.298532571E1
9.370307375E0,1.268584075E1,-5.282048346E0,-4.470429085E0,1.445044382E1
9.380287375E0,1.449147732E1,-3.916732846E0,-5.335666144E0,1.593151105E1
9.390268375E0,1.612688039E1,-3.109880821E0,-7.065145649E0,1.787914743E1
9.400248375E0,1.735738716E1,-3.215335355E0,-8.767857771E0,1.971021563E1
9.410228375E0,1.731565675E1,-3.384631837E0,-1.018800378E1,2.037358884E1
9.420209375E0,1.665751521E1,-3.036408802E0,-1.088297109E1,2.012788243E1
9.430189375E0,1.652088683E1,-3.845355008E0,-1.144067384E1,2.046009469E1
9.440170375E0,1.611444921E1,-4.816919590E0,-1.182651523E1,2.056075509E1
9.450150375E0,1.490552801E1,-5.171083395E0,-1.130236848E1,1.940768925E1
9.460131375E0,1.366151534E1,-5.551210885E0,-1.065192889E1,1.819111137E1
9.470111375E0,1.233154041E1,-6.426806871E0,-9.613560451E0,1.690536247E1
9.480092375E0,1.145179758E1,-5.997029504E0,-7.828632969E0,1.511276033E1
9.490072375E0,1.197304879E1,-5.454531852E0,-5.792428411E0,1.437560580E1
9.500052375E0,1.400445337E1,-5.365184058E0,-3.799913664E0,1.547091652E1
9.510033375E0,1.597029078E1,-5.133827276E0,-2.357380858E0,1.694000043E1
9.520013375E0,1.679495869E1,-5.036498618E0,-1.202719708E0,1.757508152E1
9.529994375E0,1.664169030E1,-4.682691785E0,-1.464849143E0,1.734990609E1
9.539974375E0,1.615783321E1,-4.266187012E0,-2.917940120E0,1.696438328E1
9.549955375E0,1.549192656E1,-4.421370946E0,-4.684903786E0,1.677786140E1
9.559935375E0,1.425073809E1,-5.524727091E0,-5.511470869E0,1.624753695E1
9.569916375E0,1.205307145E1,-6.581476834E0,-6.569516940E0,1.522336761E1
9.579896375E0,1.006956492E1,-6.108252316E0,-6.746617407E0,1.357290428E1
9.589877375E0,8.016684102E0,-6.089151801E0,-5.801071765E0,1.161883933E1
9.599857375E0,6.044122978E0,-6.372683288E0,-4.248903227E0,9.756828046E0
9.609837375E0,4.733667811E0,-6.841243483E0,-2.331664803E0,8.639842828E0
9.619818375E0,3.679051716E0,-7.259126444E0,-4.525329763E-1,8.150774463E0
9.629797250E0,2.405815538E0,-7.762840683E0,1.002679224E0,8.188712323E0
9.639778250E0,7.030389507E-1,-8.164128662E0,2.484888897E0,8.562822747E0
9.649758250E0,-1.190030738E0,-8.895406010E0,3.337049827E0,9.574984218E0
9.659739250E0,-2.554776280E0,-1.090207043E1,2.069927790E0,1.138712530E1
9.669719250E0,-4.337096196E0,-1.253457562E1,2.008722644E0,1.341495271E1
9.679700250E0,-6.134951288E0,-1.369565490E1,1.367122289E0,1.506909465E1
9.689680250E0,-8.011178949E0,-1.391867706E1,1.381248577E0,1.611882151E1
9.699661250E0,-9.049630415E0,-1.378435014E1,1.873087707E0,1.659555895E1
9.709641250E0,-9.387487798E0,-1.342985451E1,2.410060909E0,1.656183301E1
9.719621250E0,-9.331902997E0,-1.303156790E1,2.203198113E0,1.617900669E1
9.729602250E0,-8.944857666E0,-1.288672302E1,1.339839181E0,1.574399180E1
9.739582250E0,-8.382767165E0,-1.295843561E1,5.479425788E-1,1.544318878E1
9.749563250E0,-7.927360282E0,-1.308868000E1,2.195114923E-1,1.530375021E1
9.759543250E0,-7.647944065E0,-1.335092645E1,1.622649121E-1,1.538715748E1
9.769524250E0,-7.686738002E0,-1.353041141E1,2.380483353E-1,1.556324648E1
9.779504250E0,-7.400682857E0,-1.341887811E1,5.346004021E-1,1.533369473E1
9.789485250E0,-6.713882355E0,-1.365441097E1,6.175080729E-1,1.522827868E1
9.799465250E0,-6.286672500E0,-1.381861716E1,5.393190686E-1,1.519102684E1
9.809446250E0,-6.035352740E0,-1.374321147E1,2.999422459E-1,1.501303799E1
9.819426250E0,-5.878725128E0,-1.387637245E1,-1.132488728E-2,1.507027703E1
9.829407250E0,-5.799467874E0,-1.421095247E1,-3.414492909E-1,1.535257585E1
9.839387250E0,-5.857890329E0,-1.452809960E1,-6.962852705E-1,1.568009471E1
9.849367250E0,-6.045420476E0,-1.497109635E1,-1.138307877E0,1.618569058E1
9.859348250E0,-6.700610345E0,-1.547886037E1,-1.663452162E0,1.694875720E1
9.869328250E0,-7.273063867E0,-1.572121927E1,-1.936673838E0,1.742999997E1
9.879309250E0,-7.450404071E0,-1.604654900E1,-2.340558565E0,1.784596509E1
9.889289250E0,-6.957545187E0,-1.679849742E1,-2.846853765E0,1.840384544E1
9.899270250E0,-5.683777789E0,-1.758756163E1,-3.095573269E0,1.874060373E1
9.909250250E0,-3.683261127E0,-1.812944065E1,-3.133314123E0,1.876328032E1
9.919231250E0,-2.511184995E0,-1.744751146E1,-3.117717260E0,1.790089012E1
9.929211250E0,-1.413218229E0,-1.579800023E1,-2.879263127E0,1.612030252E1
9.939192250E0,5.618671381E-1,-1.483644433E1,-2.246982649E0,1.501614818E1
9.949172250E0,2.722185865E0,-1.436958392E1,-1.490316983E0,1.470089394E1
9.959153250E0,5.226290467E0,-1.368420839E1,-4.690712410E-1,1.465577357E1
9.969133250E0,1.020090274E1,-1.302844198E1,2.811879230E-1,1.654925327E1
9.979114250E0,1.589627906E1,-1.161230365E1,1.142960214E0,1.971911870E1
9.989094250E0,1.926179723E1,-8.901623354E0,2.877585561E0,2.141345907E1
9.999075250E0,2.091230950E1,-6.693017735E0,4.991931725E0,2.251756109E1
1.000905525E1,2.062637832E1,-5.062277237E0,7.147907724E0,2.240907669E1
1.001903525E1,2.004895642E1,-3.685900852E0,8.380810102E0,2.204051942E1
1.002901625E1,2.044250444E1,-2.338533820E0,8.138721925E0,2.212698630E1
1.003899625E1,2.082146248E1,-2.706588417E-1,6.742010386E0,2.188746811E1
1.004897725E1,2.111180948E1,1.780420448E0,4.644453041E0,2.168984418E1
1.005895725E1,2.150595860E1,2.875449573E0,2.610300855E0,2.185378997E1
1.006893825E1,2.164017559E1,3.641509961E0,1.460521034E0,2.199297424E1
1.007891825E1,2.164114856E1,4.392494472E0,1.527646193E0,2.213519870E1
1.008889925E1,2.175035584E1,4.969077297E0,2.485233883E0,2.244874375E1
1.009887925E1,2.162794555E1,5.474025884E0,3.576212057E0,2.259474011E1
1.010886025E1,2.104513485E1,5.909146437E0,5.117514714E0,2.245004832E1
1.011884025E1,2.083471929E1,5.870256021E0,7.212748668E0,2.281598512E1
1.012882125E1,2.092375601E1,5.543963261E0,9.988506138E0,2.383923969E1
1.013880125E1,2.083579518E1,5.417644692E0,1.241515794E1,2.485190901E1
1.014878225E1,2.041297834E1,5.354239824E0,1.347575398E1,2.503903980E1
1.015876225E1,1.977703750E1,4.988492392E0,1.314743399E1,2.426667034E1
1.016874325E1,1.957465367E1,4.117770646E0,1.189129887E1,2.327071315E1
1.017872325E1,1.978800220E1,2.818878347E0,1.022511723E1,2.245137253E1
1.018870425E1,1.997580073E1,1.566666271E0,8.608256266E0,2.180800619E1
1.019868425E1,1.988714759E1,3.513952951E-1,7.493204520E0,2.125488725E1
1.020866525E1,1.945841336E1,-6.303441730E-1,6.952828823E0,2.067290529E1
1.021864525E1,1.878579061E1,-1.432352219E0,6.804522384E0,2.003145243E1
1.022862625E1,1.792923082E1,-2.134301833E0,6.726405337E0,1.926803287E1
1.023860625E1,1.697792391E1,-2.967902531E0,6.616313961E0,1.846168888E1
1.024858725E1,1.580551741E1,-3.940744438E0,6.392261521E0,1.749871009E1
1.025856725E1,1.433759030E1,-5.052607697E0,6.193829241E0,1.641520212E1
1.026854825E1,1.272956389E1,-6.347056696E0,6.040922213E0,1.545379134E1
1.027852825E1,1.115874215E1,-7.498673421E0,5.792696214E0,1.463909010E1
1.028850925E1,9.651449239E0,-8.595729775E0,5.569360642E0,1.407319512E1
1.029848925E1,8.122446785E0,-9.589542428E0,5.420778800E0,1.368642790E1
1.030847025E1,6.802318568E0,-1.051031868E1,5.152840667E0,1.353846755E1
1.031845025E1,5.747685517E0,-1.165004860E1,4.615014356E0,1.378614807E1
1.032843125E1,4.476285072E0,-1.280426792E1,4.106490197E0,1.417214404E1
1.033841125E1,3.010248944E0,-1.394175719E1,3.689651549E0,1.473253952E1
1.034839225E1,1.686053989E0,-1.498297789E1,3.574579514E0,1.549548397E1
1.035837225E1,6.198013508E-1,-1.597714372E1,3.734683003E0,1.641953508E1
1.036835225E1,-2.917801541E-1,-1.691256374E1,4.649587773E0,1.754248028E1
1.037833325E1,-9.492176932E-1,-1.780426646E1,5.960652806E0,1.879952926E1
1.038831325E1,-1.540854614E0,-1.864528786E1,6.921626326E0,1.994818045E1
1.039829425E1,-2.389967829E0,-1.917438603E1,7.423870575E0,2.069982803E1
1.040827425E1,-3.103152138E0,-1.901355720E1,7.156540554E0,2.055142290E1
1.041825525E1,-2.914087390E0,-1.905815976E1,6.183248119E0,2.024692362E1
1.042823525E1,-1.876460088E0,-1.970592133E1,4.929885750E0,2.039971106E1
1.043821625E1,-3.354285226E-1,-2.064935320E1,3.602258771E0,2.096388724E1
1.044819625E1,1.789987370E0,-2.221801615E1,2.741746556E0,2.245799347E1
1.045817725E1,3.756125328E0,-2.419097898E1,2.807858392E0,2.464134757E1
1.046815725E1,3.542173076E0,-2.506459042E1,4.031679751E0,2.563269639E1
1.047813825E1,1.338450759E0,-2.465479415E1,5.338350016E0,2.526159746E1
1.048811825E1,-1.177372540E0,-2.395391180E1,6.243824104E0,2.478228069E1
1.049809925E1,-2.409915898E0,-2.347894248E1,6.249937953E0,2.441577684E1
1.050807925E1,-2.585979069E0,-2.253763899E1,4.890089600E0,2.320658172E1
1.051806025E1,-2.513241461E0,-2.169248712E1,2.211671898E0,2.194930232E1
1.052804025E1,-2.555439062E0,-2.081564801E1,-7.498384568E-1,2.098532174E1
1.053802125E1,-3.067684389E0,-1.954097137E1,-2.902436228E0,1.999210809E1
1.054800125E1,-3.751506320E0,-1.860275288E1,-3.833214434E0,1.936052032E1
1.055798225E1,-4.360068737E0,-1.794108429E1,-3.763421191E0,1.884293088E1
1.056796225E1,-4.850723805E0,-1.743508262E1,-3.175455590E0,1.837376243E1
1.057794325E1,-5.252567269E0,-1.702749427E1,-2.342170057E0,1.797250079E1
1.058792325E1,-5.594105474E0,-1.657207920E1,-8.916594565E-1,1.751350569E1
1.059790425E1,-5.842609216E0,-1.624262836E1,6.468494010E-1,1.727360624E1
1.060788425E1,-6.271928161E0,-1.597139006E1,1.792294389E0,1.725209270E1
1.061786525E1,-6.435064309E0,-1.603015107E1,2.485453153E0,1.745145476E1
1.062784683E1,-6.044352189E0,-1.641428741E1,3.039069870E0,1.775384381E1
1.063782683E1,-6.528385870E0,-1.572472410E1,3.871884702E0,1.746076347E1
1.064780783E1,-8.059025545E0,-1.406329273E1,5.155756089E0,1.700899515E1
1.065778783E1,-9.626773404E0,-1.265318054E1,7.191860075E0,1.744994543E1
1.066776883E1,-1.062500129E1,-1.153365392E1,9.688524095E0,1.843321254E1
1.067774883E1,-9.866440834E0,-1.106532586E1,1.209248519E1,1.913155219E1
1.068772983E1,-6.348124983E0,-1.141441984E1,1.324445216E1,1.860116083E1
1.069770983E1,-1.567008479E0,-1.107880720E1,1.352322284E1,1.755200959E1
1.070769083E1,2.636366281E0,-9.730479621E0,1.353087802E1,1.687356870E1
1.071767083E1,6.459850071E0,-8.912897370E0,1.347170887E1,1.739702108E1
1.072765183E1,8.846171869E0,-7.741926363E0,1.390774978E1,1.821037299E1
1.073763183E1,1.006517834E1,-6.431885177E0,1.575676567E1,1.977252200E1
1.074761283E1,1.169021897E1,-5.635605503E0,1.909439262E1,2.308716306E1
1.075759283E1,1.329445287E1,-4.809300376E0,2.279267349E1,2.682121943E1
1.076757383E1,1.491438538E1,-3.796687170E0,2.524014254E1,2.956211292E1
1.077755383E1,1.608008863E1,-2.754685859E0,2.565751446E1,3.040502578E1
1.078753483E1,1.823097170E1,-1.634559315E0,2.393293433E1,3.013014204E1
1.079751483E1,1.982266449E1,-1.240925342E-2,2.166446258E1,2.936472579E1
1.080749583E1,2.014838715E1,1.396172718E0,2.012544735E1,2.851211031E1
1.081747583E1,2.038850423E1,2.252524640E0,1.899340302E1,2.795557780E1
1.082745683E1,2.110073018E1,2.557664220E0,1.766489925E1,2.763749493E1
1.083743683E1,2.242038126E1,2.788140703E0,1.685276309E1,2.818621735E1
1.084741783E1,2.379504763E1,3.220510141E0,1.681468719E1,2.931398442E1
1.085739783E1,2.460655930E1,3.884467033E0,1.598878085E1,2.960089454E1
1.086737883E1,2.526461431E1,4.477528482E0,1.368370553E1,2.907907829E1
1.087735883E1,2.556599150E1,4.930433049E0,1.099395826E1,2.826298303E1
1.088733983E1,2.601601660E1,4.822440531E0,8.256045722E0,2.771734734E1
1.089731983E1,2.599696637E1,4.254751905E0,6.075493290E0,2.703436319E1
1.090730083E1,2.529989173E1,3.797219267E0,4.287808846E0,2.594009831E1
1.091728083E1,2.453733061E1,2.563729829E0,2.564505755E0,2.480383022E1
1.092726183E1,2.358112374E1,1.059073427E0,1.080889388E0,2.362962876E1
1.093724283E1,2.232491261E1,2.567354518E-1,2.087777585E-1,2.232736492E1
1.094722283E1,2.158721385E1,-5.586388904E-1,-5.279953873E-1,2.160089485E1
1.095720383E1,2.126724953E1,-1.478716984E0,-1.831848464E0,2.139715344E1
1.096718383E1,2.017456630E1,-1.612528760E0,-3.166534494E0,2.048512424E1
1.097716483E1,1.841945319E1,-1.533056914E0,-3.889932718E0,1.888804108E1
1.098714483E1,1.654983405E1,-1.619914963E0,-4.329474936E0,1.718329086E1
1.099712583E1,1.503915326E1,-1.761605862E0,-4.391085877E0,1.576581813E1
1.100710583E1,1.442496992E1,-2.199502673E0,-4.048843960E0,1.514300850E1
1.101708683E1,1.449749176E1,-2.919092022E0,-3.644445263E0,1.523090105E1
1.102706683E1,1.428614883E1,-3.536001924E0,-3.293094553E0,1.508117468E1
1.103704783E1,1.343477318E1,-4.074801212E0,-3.066140432E0,1.437005054E1
1.104702783E1,1.209536202E1,-4.422681892E0,-2.803131795E0,1.318011553E1
1.105700883E1,1.087513114E1,-4.671734102E0,-2.366291137E0,1.207033184E1
1.106698883E1,1.016464649E1,-4.958513133E0,-2.130412850E0,1.150849902E1
1.107696983E1,9.742377536E0,-5.366165805E0,-2.087557291E0,1.131669346E1
1.108694983E1,9.410684288E0,-5.900087931E0,-2.154948059E0,1.131440752E1
1.109693083E1,9.115590516E0,-6.787661353E0,-2.188936754E0,1.157401319E1
1.110691083E1,8.454756330E0,-7.692357177E0,-1.817541497E0,1.157405377E1
1.111689183E1,7.141063558E0,-8.293579584E0,-1.348352727E0,1.102707151E1
1.112687283E1,5.458174083E0,-8.627293046E0,-8.310600829E-1,1.024268082E1
1.113685283E1,3.903911072E0,-8.978296723E0,-2.102717221E-1,9.792576163E0
1.114683383E1,2.914525054E0,-9.723775789E0,7.781770606E-2,1.015146923E1
1.115681383E1,2.253140644E0,-1.065695866E1,-2.995060436E-1,1.089665612E1
1.116679483E1,1.830668496E0,-1.156292509E1,-7.419110942E-1,1.173043118E1
1.117677483E1,1.697463661E0,-1.259601583E1,-1.325325222E0,1.277879042E1
1.118675583E1,1.733449180E0,-1.349281966E1,-1.825579079E0,1.372566091E1
1.119673583E1,1.837882791E0,-1.411460088E1,-2.030592985E0,1.437786768E1
1.120671683E1,1.970828009E0,-1.441796261E1,-1.870696780E0,1.467178637E1
1.121669683E1,1.998552875E0,-1.442698838E1,-1.677750358E0,1.466107273E1
1.122667783E1,2.556365846E0,-1.443155622E1,-1.315630538E0,1.471515223E1
1.123665783E1,3.424666553E0,-1.442000095E1,-8.055125014E-1,1.484296530E1
1.124663883E1,3.329489377E0,-1.395590277E1,-3.025671706E-1,1.435075846E1
1.125661983E1,2.558265606E0,-1.357985664E1,9.610600591E-2,1.381906167E1
1.126659983E1,1.340936118E0,-1.304217241E1,-3.013216406E-3,1.311092598E1
1.127658083E1,-2.621365249E-1,-1.198103492E1,-2.592522396E-1,1.198670618E1
1.128656083E1,-1.574386203E0,-1.124481200E1,-3.423644167E-1,1.135965238E1
1.129654183E1,-2.429481851E0,-1.101748979E1,-8.510287629E-1,1.131422615E1
1.130652183E1,-2.883597668E0,-1.092831975E1,-1.950299605E0,1.146939304E1
1.131650283E1,-3.327751585E0,-1.064503619E1,-3.525290995E0,1.169693989E1
1.132648283E1,-4.002010978E0,-9.134879311E0,-5.199513727E0,1.124709095E1
1.133646383E1,-4.275981098E0,-7.309868581E0,-6.633324680E0,1.075728541E1
1.134644383E1,-4.285840089E0,-5.856282345E0,-7.724888746E0,1.059897987E1
1.135642483E1,-4.181706440E0,-4.773268663E0,-8.155789948E0,1.033381208E1
1.136640483E1,-3.730238242E0,-4.891413994E0,-7.897237181E0,1.001034282E1
1.137638583E1,-3.560891182E0,-5.510211378E0,-7.317844183E0,9.828184926E0
1.138636683E1,-3.803167055E0,-5.782526736E0,-6.337419316E0,9.384272944E0
1.139634683E1,-4.270135052E0,-5.975479006E0,-5.006830430E0,8.888686836E0
1.140632783E1,-4.988225759E0,-5.936582742E0,-3.518287200E0,8.514913723E0
1.141630783E1,-5.786790526E0,-5.417668081E0,-1.655981174E0,8.098169279E0
1.142628883E1,-6.031256180E0,-5.250640612E0,3.655087195E-1,8.004928143E0
1.143626883E1,-5.432760914E0,-5.760586229E0,2.172144574E0,8.210813413E0
1.144624983E1,-4.524472561E0,-6.181428466E0,3.872083508E0,8.583352522E0
1.145622983E1,-4.011060714E0,-6.517687805E0,5.188971198E0,9.246311938E0
1.146621083E1,-4.284168954E0,-6.461615345E0,6.251347132E0,9.959212693E0
1.147619083E1,-4.792622947E0,-6.434515840E0,7.596134226E0,1.104868698E1
1.148617183E1,-5.447383046E0,-6.944182545E0,8.794953768E0,1.245980999E1
1.149615283E1,-6.330081060E0,-7.709429292E0,9.798410819E0,1.398263497E1
1.150613283E1,-7.189892487E0,-8.602296199E0,1.142599733E1,1.600773153E1
1.151611383E1,-7.941638013E0,-9.615623934E0,1.397252991E1,1.872862595E1
1.152609383E1,-8.195885475E0,-1.025089643E1,1.691307712E1,2.140807311E1
1.153607483E1,-6.690629148E0,-1.011029312E1,2.001020575E1,2.339638603E1
1.154605483E1,-3.092861623E0,-1.096469645E1,2.192818838E1,2.471104625E1
1.155603583E1,-9.990640372E-2,-1.185993557E1,2.169464825E1,2.472500386E1
1.156601583E1,2.988815975E-1,-1.141902160E1,2.054534527E1,2.350733070E1
1.157599683E1,-7.024555448E-1,-1.162687024E1,1.920926117E1,2.246493423E1
1.158597783E1,-1.876406586E0,-1.257052781E1,1.773387534E1,2.181809812E1
1.159595783E1,-2.415045222E0,-1.348381495E1,1.639932321E1,2.136781484E1
1.160593883E1,-2.069262669E0,-1.467577220E1,1.502697117E1,2.110616025E1
1.161591883E1,-1.670203357E0,-1.520351616E1,1.353981958E1,2.042702125E1
1.162590033E1,-1.296131828E0,-1.494918566E1,1.212824325E1,1.929384342E1
1.163588033E1,-9.478938836E-1,-1.507437221E1,1.072094474E1,1.852225301E1
1.164586133E1,-2.772287732E-1,-1.446577062E1,8.985251402E0,1.703144498E1
1.165584233E1,9.396960872E-1,-1.383647924E1,6.836704289E0,1.546194399E1
1.166582233E1,2.613171546E0,-1.382746985E1,4.488838752E0,1.477082466E1
1.167580333E1,4.040423092E0,-1.322866585E1,2.373894711E0,1.403417240E1
1.168578333E1,5.299795815E0,-1.186586231E1,9.890290457E-1,1.303321536E1
1.169576433E1,6.643090700E0,-1.025599871E1,3.547081813E-1,1.222464648E1
1.170574433E1,8.688054972E0,-9.013082979E0,3.576428989E-1,1.252381222E1
1.171572533E1,1.032893688E1,-8.120889087E0,7.461257672E-1,1.316026141E1
1.172570533E1,1.125904997E1,-6.836762177E0,7.965100551E-1,1.319628552E1
1.173568633E1,1.208180817E1,-5.527025632E0,3.292191450E-1,1.329008978E1
1.174566733E1,1.303297591E1,-4.229843059E0,-4.714914036E-1,1.371030042E1
1.175564733E1,1.413337980E1,-3.051605131E0,-1.135309571E0,1.450357357E1
1.176562833E1,1.575804621E1,-2.022439043E0,-1.613293576E0,1.596900110E1
1.177560833E1,1.951414201E1,-1.413541580E0,-1.246952652E0,1.960496695E1
1.178558933E1,2.404843321E1,-4.755137032E-1,2.374074805E-1,2.405430555E1
1.179556933E1,2.666191875E1,1.417657435E0,1.822229210E0,2.676169246E1
1.180555033E1,2.754135402E1,2.699873767E0,2.626173999E0,2.779770296E1
1.181553133E1,2.741136808E1,3.518583654E0,3.604082226E0,2.787028776E1
1.182551133E1,2.733898189E1,4.189077148E0,5.999618651E0,2.830130248E1
1.183549233E1,2.870148839E1,4.238724394E0,9.463947744E0,3.051734797E1
1.184547233E1,3.138777410E1,4.248312659E0,1.287183834E1,3.418954147E1
1.185545333E1,3.359277316E1,4.384431161E0,1.433354636E1,3.678516272E1
1.186543333E1,3.462418925E1,4.200153529E0,1.236924092E1,3.700640339E1
1.187541433E1,3.490788446E1,3.621304907E0,8.274469714E0,3.605746935E1
1.188539533E1,3.412774661E1,3.148899584E0,4.105537101E0,3.451773591E1
1.189537533E1,3.245363731E1,1.975299960E0,1.190231152E0,3.253547349E1
1.190535633E1,2.990513071E1,1.723735785E-1,-2.201862609E-1,2.990643806E1
1.191533633E1,2.652427062E1,-1.000343993E0,-2.360895912E-1,2.654417748E1
1.192531733E1,2.269933789E1,-1.393076325E0,4.672544380E-1,2.274684437E1
1.193529733E1,1.918619858E1,-2.400028256E0,1.616656895E0,1.940319384E1
1.194527833E1,1.633421914E1,-3.629196602E0,2.860011170E0,1.697520094E1
1.195525933E1,1.399192980E1,-4.771579695E0,3.591268637E0,1.521312863E1
1.196523933E1,1.209025155E1,-5.591399383E0,4.055654504E0,1.392430476E1
1.197522033E1,1.087747705E1,-6.557783917E0,4.526437225E0,1.348379289E1
1.198520033E1,1.016049146E1,-7.637253016E0,4.810511334E0,1.359059379E1
1.199518133E1,9.623057499E0,-8.494083533E0,5.281883454E0,1.387987693E1
1.200516133E1,9.256960988E0,-9.462215214E0,5.856879930E0,1.447507810E1
1.201514233E1,8.606676348E0,-1.042802614E1,5.860540287E0,1.473650363E1
1.202512333E1,7.570557336E0,-1.143366303E1,5.352982088E0,1.472061160E1
1.203510333E1,6.712829272E0,-1.218165289E1,4.547733954E0,1.463340794E1
1.204508433E1,6.496510359E0,-1.293536016E1,3.646721584E0,1.492738314E1
1.205506433E1,6.536796505E0,-1.390740713E1,2.712672153E0,1.560462341E1
1.206504533E1,6.759915145E0,-1.472688856E1,1.822733240E0,1.630644216E1
1.207502533E1,7.051506434E0,-1.532609719E1,1.144562643E0,1.690925846E1
1.208500633E1,7.571927923E0,-1.615446170E1,5.873241609E-1,1.785064915E1
1.209498733E1,7.823521333E0,-1.734188268E1,5.098684341E-1,1.903177204E1
1.210496733E1,7.710793447E0,-1.841325865E1,1.032858605E0,1.998927779E1
1.211494833E1,7.247037326E0,-1.950968175E1,1.779784856E0,2.088815133E1
1.212492833E1,6.333799889E0,-2.046473087E1,2.319007482E0,2.154762229E1
1.213490933E1,4.847439717E0,-2.074164565E1,2.594085065E0,2.145793125E1
1.214489033E1,3.059362047E0,-2.012380546E1,2.650919124E0,2.052692413E1
1.215487033E1,1.635907683E0,-1.890019372E1,2.728512260E0,1.916607147E1
1.216485133E1,5.030115505E-1,-1.735539677E1,2.495056328E0,1.754104112E1
1.217483133E1,-3.905735403E-1,-1.631846090E1,2.309330048E0,1.648568224E1
1.218481233E1,-1.348742151E0,-1.603116147E1,2.214939030E0,1.623955659E1
1.219479233E1,-3.187157331E0,-1.599202956E1,2.228073631E0,1.645804646E1
1.220477333E1,-5.633469515E0,-1.621053884E1,2.849408706E0,1.739645591E1
1.221475433E1,-8.420236707E0,-1.629180110E1,2.979848685E0,1.857963045E1
1.222473433E1,-1.174283339E1,-1.581010163E1,2.364192133E0,1.983539397E1
1.223471533E1,-1.505150024E1,-1.542441695E1,1.229521225E0,2.158638507E1
1.224469533E1,-1.736043941E1,-1.478582849E1,3.853508073E-1,2.280688659E1
1.225467633E1,-1.817497058E1,-1.421679618E1,2.596766013E-1,2.307627095E1
1.226465733E1,-1.713794583E1,-1.464762955E1,1.217018708E0,2.257749706E1
1.227463733E1,-1.483326111E1,-1.577861320E1,3.205838892E0,2.189218291E1
1.228461833E1,-1.261434802E1,-1.600957238E1,5.603494349E0,2.113829067E1
1.229459833E1,-1.113129532E1,-1.577453419E1,7.302868295E0,2.064154911E1
1.230457933E1,-9.882987285E0,-1.590146554E1,7.918419889E0,2.032809430E1
1.231456033E1,-8.260583162E0,-1.636557776E1,7.615377413E0,1.985102876E1
1.232454033E1,-6.932980449E0,-1.622283203E1,6.928989140E0,1.895408630E1
1.233452133E1,-5.789182037E0,-1.596688653E1,6.603203334E0,1.822246933E1
1.234450133E1,-3.963200085E0,-1.696804680E1,5.939386482E0,1.840917920E1
1.235448233E1,-2.510522798E0,-1.763413003E1,4.522619578E0,1.837714217E1
1.236446333E1,-1.265723530E0,-1.826307058E1,3.120464866E0,1.857092092E1
1.237444333E1,-3.203012458E-2,-1.873799547E1,2.095239217E0,1.885480118E1
1.238442433E1,1.229939447E0,-1.887417946E1,1.316447394E0,1.895996928E1
1.239440433E1,2.298671158E0,-1.879772711E1,9.203230923E-1,1.896010096E1
1.240438533E1,2.858359331E0,-1.802793883E1,1.112430439E0,1.828699806E1
1.241436533E1,3.110186630E0,-1.695442044E1,1.692761915E0,1.732025047E1
1.242434633E1,3.568858306E0,-1.616857103E1,2.438070826E0,1.673629673E1
1.243432733E1,4.667901253E0,-1.507864185E1,3.000167175E0,1.606722581E1
1.244430733E1,6.519696908E0,-1.370517416E1,3.358838307E0,1.554413206E1
1.245428833E1,9.045053800E0,-1.214779868E1,3.469881610E0,1.553776333E1
1.246426833E1,1.186848537E1,-1.031738863E1,3.049558606E0,1.601902809E1
1.247424933E1,1.370158163E1,-8.429409819E0,1.720647286E0,1.617865619E1
1.248423033E1,1.350233191E1,-6.738904930E0,-3.378088510E-1,1.509436721E1
1.249421033E1,1.150918216E1,-5.509430190E0,-2.252676083E0,1.295722364E1
1.250419133E1,9.329699181E0,-4.424231404E0,-2.742854018E0,1.068364912E1
1.251417133E1,8.602322511E0,-3.187691766E0,-1.817818362E0,9.352314953E0
1.252415233E1,1.023147783E1,-2.505078163E0,-4.749395066E-1,1.054438821E1
1.253413333E1,1.334955937E1,-1.856295819E0,9.222263610E-1,1.350951779E1
1.254411333E1,1.735747838E1,-8.192972392E-1,1.678896412E0,1.745772026E1
1.255409433E1,2.026083145E1,9.187032674E-1,1.768945580E0,2.035864620E1
1.256407533E1,2.119004055E1,2.608881151E0,1.401255995E0,2.139597153E1
1.257405533E1,2.078256213E1,3.227033003E0,8.007516253E-1,2.104684855E1
1.258403633E1,2.056353011E1,3.040037000E0,1.736728299E-1,2.078775499E1
1.259401633E1,2.084804860E1,3.116600441E0,-1.457947674E-1,2.108021786E1
1.260399733E1,2.129609501E1,3.608032897E0,-4.783969653E-1,2.160487046E1
1.261397833E1,2.176745310E1,3.897075677E0,-7.955734773E-1,2.212785915E1
1.262395833E1,2.201319988E1,4.004288761E0,-1.152193990E0,2.240408106E1
1.263393796E1,2.174739949E1,3.995335797E0,-1.848237186E0,2.218846712E1
1.264391796E1,2.089485673E1,3.537304976E0,-2.690467644E0,2.136226066E1
1.265389896E1,1.934753378E1,2.972948678E0,-3.250359592E0,1.984263906E1
1.266387996E1,1.726934914E1,2.301472852E0,-3.420348676E0,1.775460453E1
1.267385996E1,1.505443672E1,1.492182537E0,-2.815184076E0,1.538791522E1
1.268384096E1,1.323573396E1,5.047301202E-1,-1.518014220E0,1.333205810E1
1.269382096E1,1.203681502E1,-4.743669181E-1,-2.776515269E-1,1.204935808E1
1.270380196E1,1.109650439E1,-1.235979474E0,4.762193160E-1,1.117527806E1
1.271378296E1,1.014224815E1,-2.142222764E0,5.284315896E-1,1.037947763E1
1.272376296E1,8.987030709E0,-2.944466599E0,8.519627094E-2,9.457476562E0
1.273374396E1,7.943808500E0,-3.483812601E0,-8.333404970E-1,8.714097779E0
1.274372496E1,6.793436648E0,-3.887465486E0,-1.679069051E0,8.005150983E0
1.275370496E1,5.731179412E0,-4.214045928E0,-1.945670364E0,7.374973471E0
1.276368596E1,4.674600992E0,-4.360650828E0,-1.790954207E0,6.638876942E0
1.277366596E1,4.131583523E0,-4.487512311E0,-1.248876532E0,6.226350596E0
1.278364696E1,4.433680505E0,-4.477561519E0,-1.739872639E-1,6.303677620E0
1.279362796E1,5.374621464E0,-3.925696628E0,1.438929752E0,6.809417650E0
1.280360796E1,7.568341241E0,-3.727905203E0,3.183183563E0,9.017190468E0
1.281358896E1,9.823930407E0,-4.101677354E0,3.839346702E0,1.131697614E1
1.282356896E1,1.101586544E1,-4.406400905E0,2.548232661E0,1.213503811E1
1.283354996E1,1.177141341E1,-4.659561369E0,6.217122209E-1,1.267533873E1
1.284353096E1,1.199910749E1,-4.642093397E0,-8.592082867E-1,1.289441160E1
1.285351096E1,1.195333432E1,-4.561814049E0,-1.555714290E0,1.288846755E1
1.286349196E1,1.308829057E1,-5.192083670E0,-1.491106065E0,1.415925423E1
1.287347296E1,1.449696902E1,-6.780927699E0,-1.003864894E0,1.603592330E1
1.288345296E1,1.520500954E1,-8.740788086E0,-7.683612666E-1,1.755517218E1
1.289343396E1,1.498382106E1,-1.068448618E1,-5.897718054E-1,1.841252208E1
1.290341396E1,1.368200632E1,-1.260067723E1,-2.265033004E-1,1.860176517E1
1.291339496E1,1.208737823E1,-1.453439471E1,5.250565767E-2,1.890386466E1
1.292337596E1,1.084936363E1,-1.700156070E1,1.385439277E-1,2.016881136E1
1.293335596E1,9.033002688E0,-1.959016984E1,4.005632159E-1,2.157615218E1
1.294333696E1,6.520185735E0,-2.183675196E1,7.514511189E-1,2.280178144E1
1.295331796E1,3.563677088E0,-2.388582448E1,1.147512563E0,2.417745212E1
1.296329796E1,5.860956609E-2,-2.452474740E1,1.559479312E0,2.457434935E1
1.297327896E1,-3.821765001E0,-2.445520997E1,1.726784231E0,2.481219390E1
1.298325896E1,-6.954826816E0,-2.501237946E1,7.287922812E-1,2.597152056E1
1.299323996E1,-9.007184892E0,-2.517771533E1,-2.394814586E0,2.684738098E1
1.300322096E1,-1.142048925E1,-2.479569334E1,-6.082021122E0,2.796864251E1
1.301320096E1,-1.344602790E1,-2.380862019E1,-7.740808375E0,2.841770884E1
1.302318196E1,-1.456540016E1,-2.330017204E1,-7.335514469E0,2.844044078E1
1.303316296E1,-1.526390386E1,-2.339033143E1,-5.978768649E0,2.856291372E1
1.304314296E1,-1.603865058E1,-2.325314640E1,-4.554441588E0,2.861276058E1
1.305312396E1,-1.706566021E1,-2.261976430E1,-3.894370755E0,2.860168910E1
1.306310396E1,-1.794359859E1,-2.092918457E1,-3.816290545E0,2.783105407E1
1.307308496E1,-1.760845958E1,-1.965304379E1,-3.906891983E0,2.667515293E1
1.308306596E1,-1.546223557E1,-1.947107843E1,-3.736031663E0,2.514282317E1
1.309304596E1,-1.255461520E1,-1.936319964E1,-3.003724036E0,2.327174728E1
1.310302696E1,-9.576938170E0,-1.939897759E1,-2.367763320E0,2.176337242E1
1.311300796E1,-6.467974777E0,-1.992416982E1,-2.117330582E0,2.105446104E1
1.312298796E1,-3.586349667E0,-2.017764662E1,-2.143004390E0,2.060562532E1
1.313296896E1,-1.330832422E0,-1.976990390E1,-2.330203146E0,1.995119199E1
1.314294896E1,-1.496407735E-1,-1.871385933E1,-1.722818942E0,1.879359009E1
1.315292996E1,2.047235915E0,-1.763540589E1,-1.030234082E-1,1.775413556E1
1.316291096E1,5.686150589E0,-1.596604804E1,2.052839887E0,1.707223331E1
1.317289096E1,1.031001061E1,-1.415261948E1,3.777142852E0,1.791255886E1
1.318287196E1,1.622244377E1,-1.203040296E1,5.546395703E0,2.094423029E1
1.319285296E1,2.277712223E1,-8.988168578E0,7.141454152E0,2.550656462E1
1.320283296E1,2.768259235E1,-5.665966585E0,7.133780267E0,2.914309382E1
1.321281396E1,3.022802799E1,-2.300595185E0,5.635670992E0,3.083483747E1
1.322279496E1,3.059953669E1,6.101335645E-1,3.498048232E0,3.080487380E1
1.323277496E1,2.900611429E1,2.750061296E0,1.631992972E0,2.918185916E1
1.324275596E1,2.636141865E1,4.552328112E0,7.497226819E-2,2.675170472E1
1.325273596E1,2.368606723E1,5.655233436E0,6.196645260E-2,2.435190518E1
1.326271696E1,2.200811280E1,6.036111708E0,1.417543853E0,2.286484428E1
1.327269796E1,2.135158041E1,6.194506933E0,3.002422446E0,2.243382363E1
1.328267796E1,2.068143804E1,6.461909460E0,4.815742253E0,2.219616018E1
1.329265896E1,2.000758854E1,6.710962840E0,6.404587451E0,2.205355667E1
1.330263996E1,1.974008544E1,6.260890957E0,6.569983547E0,2.172635295E1
1.331261996E1,1.931505952E1,5.493947348E0,5.229946731E0,2.075108008E1
1.332260096E1,1.867593078E1,4.921258183E0,2.922741854E0,1.953334566E1
1.333258196E1,1.731661569E1,4.444897803E0,5.857196850E-1,1.788757566E1
1.334256196E1,1.518694047E1,4.528018897E0,-9.583704861E-1,1.587654213E1
1.335254296E1,1.327692175E1,4.573933573E0,-1.689639063E0,1.414398811E1
1.336252396E1,1.187110259E1,4.369849960E0,-1.297242361E0,1.271619059E1
1.337250396E1,1.076205418E1,3.820679466E0,1.280750728E-1,1.142084957E1
1.338248496E1,9.745689399E0,3.280759267E0,1.729390482E0,1.042749417E1
1.339246496E1,8.651367787E0,2.713486962E0,3.306780546E0,9.651112560E0
1.340244596E1,7.387600881E0,1.964853324E0,4.374248235E0,8.807459508E0
1.341242696E1,6.553133041E0,1.243419764E0,4.985288118E0,8.327229010E0
1.342240696E1,5.949961756E0,6.070567596E-1,5.403246508E0,8.060126280E0
1.343238796E1,5.194248894E0,-2.372618848E-1,5.162632415E0,7.327297471E0
1.344236896E1,4.474051143E0,-1.139948021E0,4.445525794E0,6.409314683E0
1.345234896E1,3.787637142E0,-2.129862335E0,3.453600622E0,5.550663559E0
1.346232996E1,2.821050587E0,-3.454891688E0,2.544175571E0,5.134922816E0
1.347231096E1,1.639960973E0,-5.305338390E0,1.792954540E0,5.835304055E0
1.348229096E1,-7.379069209E-2,-7.766302235E0,1.264985026E0,7.868995018E0
1.349227196E1,-2.609263267E0,-1.087250457E1,6.450221461E-1,1.119980643E1
1.350225296E1,-5.765501983E0,-1.455516051E1,1.964942202E-2,1.565548137E1
1.351223296E1,-9.047352925E0,-1.766142015E1,-3.780064121E-2,1.984393574E1
1.352221396E1,-1.182607435E1,-1.941554158E1,8.364032686E-1,2.274904085E1
1.353219496E1,-1.383466426E1,-2.041617559E1,2.184473429E0,2.475863658E1
1.354217496E1,-1.636626890E1,-2.011862248E1,3.280097947E0,2.614139956E1
1.355215596E1,-1.939424602E1,-1.824277021E1,2.669497190E0,2.675932845E1
1.356213596E1,-2.203089823E1,-1.656547418E1,4.389873165E-1,2.756751932E1
1.357211696E1,-2.361045337E1,-1.465936257E1,-1.850680591E0,2.785274561E1
1.358209796E1,-2.308810289E1,-1.280779379E1,-3.286160924E0,2.660637011E1
1.359207796E1,-2.041080083E1,-1.208367110E1,-3.161600028E0,2.392930447E1
1.360205896E1,-1.618961048E1,-1.160712536E1,-1.943588609E0,2.001515384E1
1.361203996E1,-1.118503006E1,-1.099910849E1,-6.316618431E-1,1.569981789E1
1.362201996E1,-5.556778019E0,-1.072577454E1,1.139485506E0,1.213336098E1
1.363200246E1,-9.615643814E-2,-9.686885705E0,3.198201259E0,1.020164163E1
1.364198346E1,4.235328039E0,-7.788980661E0,3.574952567E0,9.559629135E0
1.365196346E1,7.914874138E0,-6.203294713E0,1.579820606E0,1.017948580E1
1.366194446E1,1.118968912E1,-4.755365074E0,-1.136833209E0,1.221126650E1
1.367192546E1,1.328918570E1,-3.122033089E0,-3.497502687E0,1.409191514E1
1.368190546E1,1.480603179E1,-2.031513922E0,-5.017968206E0,1.576469572E1
1.369188646E1,1.598172092E1,-1.283911148E0,-5.168997109E0,1.684584110E1
1.370186746E1,1.621536981E1,-5.478344053E-1,-4.871593688E0,1.694021150E1
1.371184746E1,1.568751709E1,6.900474608E-2,-4.882889339E0,1.643002016E1
1.372182846E1,1.462985518E1,5.378064305E-1,-5.597136086E0,1.567322018E1
1.373180946E1,1.289135401E1,1.242224593E0,-6.696806731E0,1.458003260E1
1.374178946E1,1.156852204E1,1.110000921E0,-7.753008006E0,1.397039503E1
1.375177046E1,1.090634709E1,4.845710403E-1,-7.047516879E0,1.299425681E1
1.376175146E1,1.027900751E1,3.789463520E-1,-4.968042340E0,1.142291733E1
1.377173146E1,1.052301415E1,-2.439002287E-1,-2.362663379E0,1.078774733E1
1.378171246E1,1.129803452E1,-6.107083458E-1,-4.262481339E-1,1.132255432E1
1.379169346E1,1.117561605E1,-2.463510892E-1,-5.393952651E-1,1.119133728E1
1.380167346E1,1.045624129E1,-1.769659817E-1,-2.496592391E0,1.075161720E1
1.381165446E1,9.992290456E0,-2.973882186E-1,-4.347801864E0,1.090127008E1
1.382163546E1,9.631178697E0,-1.061111766E-1,-5.244893383E0,1.096721338E1
1.383161546E1,9.796337396E0,-1.258519614E-1,-5.687737523E0,1.132847842E1
1.384159646E1,1.032779784E1,1.033094832E-1,-5.548370308E0,1.172426945E1
1.385157746E1,1.095804349E1,9.615889397E-1,-4.784654069E0,1.199567776E1
1.386155746E1,1.116201308E1,1.989663206E0,-4.200642648E0,1.209109980E1
1.387153846E1,1.091118390E1,2.549454437E0,-4.008536179E0,1.190050480E1
1.388151946E1,1.043756996E1,2.670136290E0,-3.714954205E0,1.139620021E1
1.389149946E1,9.617411427E0,2.780550433E0,-3.078366960E0,1.047389166E1
1.390148046E1,8.736572244E0,2.514489841E0,-2.005288282E0,9.309754821E0
1.391146146E1,8.009657503E0,2.023365827E0,-5.188874719E-1,8.277551981E0
1.392144146E1,7.282521154E0,1.489082636E0,1.026334574E0,7.503722017E0
1.393142246E1,6.626546003E0,8.711680354E-1,2.081126085E0,7.000080818E0
1.394140346E1,6.328809291E0,2.701024792E-1,2.919588158E0,6.975010924E0
1.395138346E1,5.922340679E0,-6.137249243E-1,3.163687484E0,6.742380581E0
1.396136446E1,5.163924649E0,-2.050016851E0,2.774753503E0,6.210309483E0
1.397134546E1,4.154459585E0,-3.876970611E0,2.579669339E0,6.240603293E0
1.398132546E1,3.126890371E0,-6.267268515E0,2.755243683E0,7.526451076E0
1.399130646E1,1.753541967E0,-9.105157329E0,3.105378757E0,9.778659246E0
1.400128746E1,3.567222548E-1,-1.227303668E1,4.084316386E0,1.293971872E1
1.401126746E1,-1.234325590E0,-1.507233738E1,5.319603842E0,1.603112906E1
1.402124846E1,-2.961452760E0,-1.683595586E1,6.175568386E0,1.817573264E1
1.403122946E1,-4.251400281E0,-1.797553609E1,6.229513628E0,1.949361798E1
1.404120946E1,-5.012525618E0,-1.895044001E1,5.050511470E0,2.024233820E1
1.405119046E1,-5.250098575E0,-2.011558427E1,3.156417056E0,2.102767781E1
1.406117146E1,-5.267018663E0,-2.165037781E1,1.398765081E0,2.232570018E1
1.407115146E1,-5.285632104E0,-2.287671669E1,8.215110681E-1,2.349376414E1
1.408113246E1,-6.345779665E0,-2.262579161E1,2.784013739E0,2.366318022E1
1.409111346E1,-8.619506308E0,-2.043523752E1,6.593116887E0,2.313793447E1
1.410109346E1,-1.061239002E1,-1.708356673E1,1.047629256E1,2.267650281E1
1.411107446E1,-1.171769036E1,-1.366761399E1,1.280836916E1,2.209439431E1
1.412105546E1,-1.150282039E1,-1.151885813E1,1.314338772E1,2.092241884E1
1.413103546E1,-1.057560167E1,-1.014246099E1,1.146820487E1,1.860732621E1
1.414101646E1,-1.067227837E1,-8.643481647E0,8.394194963E0,1.609564567E1
1.415099746E1,-1.190876099E1,-7.003026000E0,4.922906513E0,1.466615049E1
1.416097846E1,-1.293741370E1,-5.518739542E0,1.918400997E0,1.419554232E1
1.417095846E1,-1.300382053E1,-4.106984287E0,-1.262694526E-1,1.363754421E1
1.418093946E1,-1.294547701E1,-3.413038487E0,-1.386119016E0,1.345940313E1
1.419092046E1,-1.327475360E1,-2.598903755E0,-1.354174215E0,1.359438015E1
1.420090046E1,-1.347830336E1,-1.531896826E0,-1.645388943E-1,1.356607690E1
1.421088146E1,-1.351123839E1,-3.214173514E-1,1.638363513E0,1.361400408E1
1.422086246E1,-1.283063769E1,6.825630248E-1,3.413532285E0,1.329448602E1
1.423084246E1,-1.064542444E1,1.158186656E0,4.659935591E0,1.167824720E1
1.424082346E1,-5.449086925E0,5.424093586E-1,5.787100428E0,7.967263495E0
1.425080446E1,1.717972331E0,2.640661061E-1,7.387991475E0,7.589702094E0
1.426078446E1,7.959878402E0,8.553102404E-1,9.140325993E0,1.215058760E1
1.427076546E1,1.179089048E1,1.768134279E0,9.885902706E0,1.548813964E1
1.428074646E1,1.306793174E1,3.209948900E0,9.299512931E0,1.635712544E1
1.429072646E1,1.310029608E1,4.084118750E0,8.005749224E0,1.588678079E1
1.430070746E1,1.351624712E1,3.945439752E0,6.567891414E0,1.553681526E1
1.431068846E1,1.598246585E1,3.122747034E0,5.200900687E0,1.709503237E1
1.432066846E1,1.822730784E1,2.707764292E0,4.142044777E0,1.888711925E1
1.433064946E1,1.873952393E1,3.309768473E0,2.828787915E0,1.923866850E1
1.434063046E1,1.769794069E1,3.407338622E0,1.498605996E0,1.808515638E1
1.435061146E1,1.547128589E1,3.330944164E0,9.705483359E-1,1.585553027E1
1.436059146E1,1.315469857E1,2.735463138E0,1.454821899E0,1.351463502E1
1.437057246E1,1.161371634E1,1.046887245E0,2.236795630E0,1.187340031E1
1.438055346E1,1.241534388E1,-6.233798468E-1,3.003662056E0,1.278871971E1
1.439053346E1,1.448323157E1,-1.075731559E0,3.536976070E0,1.494762172E1
1.440051446E1,1.503502981E1,-1.509057017E0,3.086872612E0,1.542265077E1
1.441049546E1,1.401779204E1,-1.713418373E0,1.236442720E0,1.417614499E1
1.442047546E1,1.236285225E1,-1.472301419E0,-1.392872403E0,1.252788413E1
1.443045646E1,1.113870959E1,-1.405766537E0,-3.708043381E0,1.182356193E1
1.444043746E1,1.070593611E1,-1.828026139E0,-4.921588551E0,1.192395829E1
1.445041846E1,1.023560830E1,-2.267575373E0,-5.169133934E0,1.168886312E1
1.446039846E1,9.134095784E0,-2.452192436E0,-4.672368818E0,1.054874324E1
1.447037946E1,7.977609499E0,-3.485895964E0,-3.668543393E0,9.447324204E0
1.448036046E1,6.940232751E0,-5.211383575E0,-2.559635316E0,9.048595601E0
1.449034046E1,5.616925988E0,-7.058522508E0,-1.234094625E0,9.104701373E0
1.450032146E1,4.675588002E0,-8.799404669E0,-1.227160996E-1,9.965224781E0
1.451030246E1,4.182085632E0,-1.069907265E1,4.591084626E-1,1.149655498E1
1.452028246E1,3.663918537E0,-1.269837718E1,5.811079860E-1,1.322916356E1
1.453026346E1,3.338540867E0,-1.443359807E1,6.073491204E-1,1.482711979E1
1.454024446E1,3.162661006E0,-1.581959049E1,7.782339978E-1,1.615139363E1
1.455022446E1,2.691537684E0,-1.707650563E1,1.256796732E0,1.733294429E1
1.456020546E1,1.737202800E0,-1.804787316E1,1.889413717E0,1.822946745E1
1.457018646E1,5.910105380E-1,-1.851562235E1,2.435105703E0,1.868441340E1
1.458016746E1,-2.426233065E-1,-1.850867585E1,2.960507265E0,1.874552083E1
1.459014746E1,-7.397436775E-1,-1.825195970E1,3.265475522E0,1.855652403E1
1.460012846E1,-8.762280697E-1,-1.781486746E1,3.087142461E0,1.810159460E1
1.461010946E1,-9.696379244E-1,-1.705380791E1,2.559145027E0,1.727199424E1
1.462008946E1,-1.372186270E0,-1.596064989E1,1.809305109E0,1.612137789E1
1.463006996E1,-2.071350417E0,-1.514482882E1,9.736210477E-1,1.531679701E1
1.464005096E1,-3.752348611E0,-1.435250771E1,2.580247629E-1,1.483715520E1
1.465003196E1,-5.729141073E0,-1.327413847E1,-4.674965858E-2,1.445780050E1
1.466001196E1,-7.484702668E0,-1.297432951E1,-6.346684357E-2,1.497858566E1
1.466999296E1,-9.645079867E0,-1.273225595E1,-2.956153611E-1,1.597577215E1
1.467997396E1,-1.149227903E1,-1.208997205E1,-4.800645181E-1,1.668743130E1
1.468995396E1,-1.287240085E1,-1.169190297E1,-7.553924346E-1,1.740603103E1
1.469993496E1,-1.481132937E1,-1.123813798E1,-1.670254812E0,1.866710942E1
1.470991596E1,-1.696144646E1,-1.077746627E1,-2.592461293E0,2.026241103E1
1.471989596E1,-1.761059382E1,-1.089380247E1,-2.894505942E0,2.090899595E1
1.472987696E1,-1.633960092E1,-1.154022152E1,-2.516638108E0,2.016166507E1
1.473985796E1,-1.361503115E1,-1.259933237E1,-2.155335730E0,1.867505613E1
1.474983896E1,-1.055442774E1,-1.381314300E1,-2.117526464E0,1.751236085E1
1.475981896E1,-7.821336229E0,-1.436099085E1,-2.478434740E0,1.653946787E1
1.476979996E1,-6.336804773E0,-1.405089079E1,-3.327499570E0,1.576879450E1
1.477978096E1,-3.737557494E0,-1.403319828E1,-4.135098577E0,1.509963676E1
1.478976096E1,8.146878791E-1,-1.456460494E1,-4.950313582E0,1.540444864E1
1.479974196E1,5.868503026E0,-1.419163444E1,-5.934592935E0,1.646393662E1
1.480972296E1,1.142178499E1,-1.283650830E1,-7.886390011E0,1.890577333E1
1.481970396E1,1.649350782E1,-1.094831489E1,-9.814848511E0,2.209598721E1
1.482968396E1,2.021856543E1,-8.231798488E0,-1.046336320E1,2.420815697E1
1.483966496E1,2.397383911E1,-5.863032956E0,-9.308833977E0,2.637753793E1
1.484964596E1,2.705471599E1,-3.420762952E0,-6.255673487E0,2.797843325E1
1.485962596E1,2.901406416E1,2.709526643E-1,-2.268814983E0,2.910389761E1
1.486960696E1,2.954481593E1,3.524324158E0,1.202995039E0,2.977858637E1
1.487958796E1,2.896696367E1,5.713751201E0,3.551971255E0,2.973799652E1
1.488956896E1,2.941970188E1,5.955535907E0,4.881100091E0,3.041072845E1
1.489954896E1,3.000023684E1,4.919710425E0,6.448990037E0,3.107743931E1
1.490952996E1,3.062453002E1,3.252070195E0,8.963364104E0,3.207459580E1
1.491951096E1,3.059919521E1,6.154471486E-1,1.152713779E1,3.270419588E1
1.492949096E1,2.908626324E1,-2.346741118E0,1.593227803E1,3.324688537E1
1.493947196E1,2.628420733E1,-5.555848897E0,2.110785443E1,3.416531180E1
1.494945296E1,2.299367503E1,-8.197714484E0,2.344281136E1,3.384489649E1
1.495943396E1,2.075951942E1,-1.018852067E1,2.294795214E1,3.257870635E1
1.496941396E1,2.026980341E1,-1.184816396E1,2.063806573E1,3.125977730E1
1.497939496E1,2.037201041E1,-1.380351264E1,1.734769481E1,3.010810994E1
1.498937596E1,1.921820624E1,-1.517987469E1,1.427790075E1,2.834830677E1
1.499935696E1,1.695481338E1,-1.612140271E1,1.208249464E1,2.633157798E1
1.500933696E1,1.386040370E1,-1.699797869E1,1.055199880E1,2.433899647E1
1.501931796E1,1.043899902E1,-1.732425099E1,9.321225396E0,2.227077941E1
1.502929896E1,7.960081301E0,-1.714948473E1,7.835346158E0,2.046607852E1
1.503927896E1,6.423595580E0,-1.681165717E1,6.210272196E0,1.903843160E1
1.504925996E1,5.033304868E0,-1.641458094E1,5.135634066E0,1.792058488E1
1.505924096E1,3.560163204E0,-1.592341248E1,4.747874790E0,1.699329698E1
1.506922196E1,2.121254210E0,-1.508832367E1,5.164488321E0,1.608816864E1
1.507920196E1,1.021259483E0,-1.471860890E1,5.651912218E0,1.579951046E1
1.508918296E1,1.962210821E-1,-1.478201377E1,5.690244809E0,1.584062246E1
1.509916396E1,-1.226592354E-1,-1.482517558E1,5.514633043E0,1.581809261E1
1.510914396E1,5.851250231E-2,-1.523140854E1,5.086591714E0,1.605841353E1
1.511912496E1,2.966655393E-1,-1.622190466E1,4.624655830E0,1.687085187E1
1.512910596E1,-1.579987836E-1,-1.743587667E1,4.170521302E0,1.792841340E1
1.513908696E1,-1.297383571E0,-1.849766906E1,3.554431179E0,1.888070300E1
1.514906696E1,-2.716425188E0,-1.924924911E1,2.671785790E0,1.962271633E1
1.515904796E1,-4.206946532E0,-1.970160140E1,1.786979270E0,2.022485579E1
1.516902896E1,-5.371068696E0,-1.979034576E1,8.815203846E-1,2.052518557E1
1.517900996E1,-6.122672135E0,-1.979610176E1,4.749985635E-2,2.072136615E1
1.518898996E1,-6.579554855E0,-2.009682406E1,-6.264057809E-1,2.115573832E1
1.519897096E1,-6.984630659E0,-2.024065387E1,-9.473500925E-1,2.143283945E1
1.520895196E1,-7.565029963E0,-1.997152993E1,-9.012810498E-1,2.137531271E1
1.521893196E1,-8.087060021E0,-1.955217347E1,-4.880858016E-1,2.116426835E1
1.522891296E1,-8.602342976E0,-1.906450984E1,2.892933333E-1,2.091744560E1
1.523889396E1,-9.135271075E0,-1.833499250E1,1.359596338E0,2.052982294E1
1.524887496E1,-9.280847449E0,-1.777425738E1,2.283621887E0,2.018101295E1
1.525885496E1,-9.010271053E0,-1.716874429E1,2.731696946E0,1.958093290E1
1.526883596E1,-8.395750322E0,-1.669266984E1,2.737541238E0,1.888459642E1
1.527881696E1,-7.688505031E0,-1.656137529E1,2.367704263E0,1.841190605E1
1.528879796E1,-7.140954800E0,-1.655618062E1,1.860443687E0,1.812626831E1
1.529877796E1,-7.020650677E0,-1.653655970E1,1.370175120E0,1.801734505E1
1.530875896E1,-7.330484110E0,-1.634269644E1,9.174901164E-1,1.793492437E1
1.531873996E1,-7.738044396E0,-1.620180778E1,4.218166754E-1,1.795978384E1
1.532872096E1,-8.177379037E0,-1.588380461E1,1.552231103E-2,1.786519012E1
1.533870096E1,-8.676257045E0,-1.534347979E1,-3.012187296E-1,1.762925242E1
1.534868196E1,-9.125278183E0,-1.497978531E1,-4.560883757E-1,1.754630122E1
1.535866296E1,-9.530907719E0,-1.466689028E1,-4.327424902E-1,1.749694655E1
1.536864296E1,-9.711241697E0,-1.416563070E1,-1.214452073E-1,1.717521637E1
1.537862396E1,-9.597573579E0,-1.372360926E1,6.126285714E-1,1.675786930E1
1.538860496E1,-9.051819028E0,-1.324843879E1,1.468183225E0,1.611248336E1
1.539858596E1,-7.795512586E0,-1.254222144E1,2.142479457E0,1.492204924E1
1.540856596E1,-6.121239567E0,-1.139611806E1,2.690650077E0,1.321289818E1
1.541854696E1,-3.098561781E0,-1.030697591E1,3.055740282E0,1.118804657E1
1.542852796E1,2.460289076E-1,-8.955869143E0,3.146875570E0,9.495838467E0
1.543850896E1,3.564746836E0,-8.101323134E0,3.440892284E0,9.496241163E0
1.544848896E1,6.851768471E0,-8.944116240E0,4.326094075E0,1.206892855E1
1.545846996E1,9.991488218E0,-1.051650503E1,6.705271161E0,1.598084404E1
1.546845096E1,1.328008158E1,-1.107252379E1,1.078379179E1,2.037772105E1
1.547843196E1,1.625665466E1,-1.039861113E1,1.609070600E1,2.512609707E1
1.548841196E1,1.928149533E1,-9.286182448E0,2.038135893E1,2.955349452E1
1.549839296E1,2.255177989E1,-8.631777275E0,2.174233814E1,3.249337814E1
1.550837396E1,2.440838079E1,-7.706134386E0,2.141948529E1,3.337585820E1
1.551835496E1,2.417671177E1,-6.240394127E0,2.032381531E1,3.219492786E1
1.552833496E1,2.198233827E1,-5.333914318E0,1.826609593E1,2.907445783E1
1.553831596E1,1.899710547E1,-5.272200465E0,1.549877716E1,2.507784296E1
1.554829696E1,1.634043006E1,-4.414416268E0,1.256217682E1,2.107854387E1
1.555827796E1,1.529014149E1,-2.159949914E0,9.689740316E0,1.823032851E1
1.556825796E1,1.699115382E1,-7.298737237E-1,7.305917033E0,1.850968524E1
1.557823896E1,1.971648374E1,1.234516793E-1,6.125528499E0,2.064647841E1
1.558821996E1,2.215794887E1,4.082448493E-1,6.342093580E0,2.305132345E1
1.559820096E1,2.363769438E1,-5.079463081E-1,7.415993207E0,2.477893380E1
1.560818096E1,2.371378771E1,-1.278355708E0,8.845580131E0,2.534210347E1
1.561816196E1,2.317238699E1,-1.470833184E0,1.011843946E1,2.532796254E1
1.562814258E1,2.224048583E1,-1.715626282E0,1.064718095E1,2.471730255E1
1.563812358E1,2.156159602E1,-1.944542436E0,1.053142011E1,2.407476849E1
1.564810358E1,2.152520295E1,-2.351322412E0,9.869042845E0,2.379624100E1
1.565808458E1,2.204837205E1,-3.243911283E0,8.674615147E0,2.391448553E1
1.566806558E1,2.274525257E1,-4.347773505E0,6.958031675E0,2.417982327E1
1.567804658E1,2.296039502E1,-5.360351919E0,5.539370273E0,2.421977983E1
1.568802658E1,2.227048438E1,-6.438574977E0,4.055963237E0,2.353466720E1
1.569800758E1,2.077980224E1,-7.502376462E0,2.532560077E0,2.223734908E1
1.570798858E1,1.850067452E1,-8.559782848E0,1.065421164E0,2.041274020E1
1.571796958E1,1.580602495E1,-9.652698205E0,-1.649113619E-1,1.852112856E1
1.572794958E1,1.313383804E1,-1.080421962E1,-1.177616369E0,1.704745270E1
1.573793058E1,1.058056947E1,-1.197884221E1,-2.097448295E0,1.611956576E1
1.574791158E1,8.042247545E0,-1.281341063E1,-2.843376426E0,1.539305125E1
1.575789258E1,5.395246933E0,-1.335553289E1,-3.728458057E0,1.487885572E1
1.576787258E1,3.135599507E0,-1.384896187E1,-4.530626171E0,1.490477449E1
1.577785358E1,1.798945012E0,-1.474428052E1,-4.938881106E0,1.565319641E1
1.578783458E1,5.354684213E-1,-1.581615818E1,-5.606321477E0,1.678893762E1
1.579781558E1,-1.202169119E0,-1.635107667E1,-6.307554077E0,1.756667747E1
1.580779558E1,-2.620795730E0,-1.673902071E1,-6.165749157E0,1.802997081E1
1.581777658E1,-3.490635717E0,-1.735568445E1,-5.506810053E0,1.853993736E1
1.582775758E1,-4.351898130E0,-1.778870468E1,-4.875841105E0,1.895127590E1
1.583773858E1,-5.102009068E0,-1.774333848E1,-3.978299350E0,1.888606424E1
1.584771858E1,-5.838258888E0,-1.739410066E1,-3.206825318E0,1.862588879E1
1.585769958E1,-6.328807536E0,-1.686311033E1,-2.458775232E0,1.817866525E1
1.586768058E1,-6.322700120E0,-1.633402619E1,-1.622380149E0,1.759002745E1
1.587766158E1,-6.020876788E0,-1.570093879E1,-9.809224659E-1,1.684436538E1
1.588764158E1,-5.703357190E0,-1.523872107E1,-8.104650199E-1,1.629121717E1
1.589762258E1,-5.825730643E0,-1.497068003E1,-1.260121166E0,1.611360616E1
1.590760358E1,-6.316469911E0,-1.463214028E1,-2.098116632E0,1.607480683E1
1.591758458E1,-6.803221963E0,-1.494151178E1,-2.986426803E0,1.668686155E1
1.592756558E1,-7.184121870E0,-1.523643949E1,-3.688420125E0,1.724427842E1
1.593754558E1,-7.963998351E0,-1.472705696E1,-3.943023098E0,1.720054963E1
1.594752658E1,-9.426401603E0,-1.450342318E1,-3.998176959E0,1.775364047E1
1.595750758E1,-9.605507666E0,-1.457959837E1,-4.249688509E0,1.796914907E1
1.596748858E1,-9.849183362E0,-1.439433051E1,-4.398676148E0,1.798753778E1
1.597746858E1,-1.038571919E1,-1.475178834E1,-4.773575057E0,1.866187132E1
1.598744958E1,-1.045214239E1,-1.538789641E1,-5.000474507E0,1.926238256E1
1.599743058E1,-1.019605891E1,-1.571607606E1,-4.685959209E0,1.931095227E1
1.600741158E1,-9.480961972E0,-1.634939267E1,-4.258676264E0,1.937337359E1
1.601739158E1,-8.330903531E0,-1.747609265E1,-3.925003148E0,1.975407345E1
1.602737258E1,-7.148693590E0,-1.848129451E1,-3.541157999E0,2.012962660E1
1.603735358E1,-6.181457117E0,-1.911612672E1,-3.063036438E0,2.032286655E1
1.604733458E1,-5.340212354E0,-1.965689593E1,-2.827037259E0,2.056461926E1
1.605731458E1,-4.394255068E0,-1.972648481E1,-2.790153900E0,2.040168227E1
1.606729558E1,-2.955491816E0,-1.990344729E1,-2.858549658E0,2.032371649E1
1.607727658E1,-9.280960885E-1,-2.075127485E1,-2.969190673E0,2.098315666E1
1.608725758E1,2.004521712E0,-2.116855788E1,-3.115088936E0,2.149022404E1
1.609723858E1,7.449427586E0,-2.012329324E1,-3.262095247E0,2.170442737E1
1.610721858E1,1.472498704E1,-1.855505363E1,-2.715836374E0,2.384304984E1
1.611719958E1,2.050530119E1,-1.667769278E1,-1.618851355E-1,2.643178050E1
1.612718058E1,2.177513868E1,-1.305830956E1,4.004369745E0,2.570430100E1
1.613716158E1,1.916139586E1,-8.951267969E0,9.631551749E0,2.323899909E1
1.614714158E1,1.666117322E1,-7.085500392E0,1.505283809E1,2.354542298E1
1.615712258E1,1.578502877E1,-6.306225005E0,1.747798130E1,2.438063653E1
1.616710358E1,1.634758705E1,-5.654355769E0,1.699890138E1,2.425238112E1
1.617708458E1,1.672240878E1,-4.454822575E0,1.476074160E1,2.274563457E1
1.618706458E1,1.685137496E1,-2.546169179E0,1.237683645E1,2.106271341E1
1.619704558E1,1.654407454E1,-9.114990592E-1,1.087943703E1,1.982168972E1
1.620702658E1,1.620009688E1,6.804284987E-1,1.031654312E1,1.921814725E1
1.621700758E1,1.643839899E1,1.873347761E0,9.903661870E0,1.928245087E1
1.622698858E1,1.698054347E1,2.720318849E0,9.209410846E0,1.950774818E1
1.623696858E1,1.761088267E1,3.390502149E0,8.515855640E0,1.985342516E1
1.624694958E1,1.780549438E1,3.840750618E0,8.239025647E0,1.999171176E1
1.625693058E1,1.677710246E1,4.242413695E0,8.644294410E0,1.934407058E1
1.626691158E1,1.512782044E1,4.298356639E0,9.196818282E0,1.821835030E1
1.627689158E1,1.377031448E1,3.884786876E0,9.745925041E0,1.731173547E1
1.628687258E1,1.249764110E1,3.405496164E0,1.019285931E1,1.648280371E1
1.629685358E1,1.151591581E1,2.810683474E0,1.002265154E1,1.552320207E1
1.630683458E1,1.078959807E1,2.234980069E0,9.117905429E0,1.430198454E1
1.631681558E1,9.927961729E0,1.817707850E0,7.832308529E0,1.277550558E1
1.632679558E1,9.015906014E0,1.357768060E0,6.683404913E0,1.130477760E1
1.633677658E1,8.061512951E0,8.301596117E-1,6.187199668E0,1.019600882E1
1.634675758E1,7.259282565E0,1.512515353E-1,6.724655265E0,9.896517004E0
1.635673858E1,6.799763920E0,-6.936111926E-1,7.675608412E0,1.027778431E1
1.636671858E1,6.654572877E0,-1.889831793E0,8.616994929E0,1.105022199E1
1.637669958E1,6.221866055E0,-2.792693053E0,9.264084066E0,1.150365182E1
1.638668058E1,5.568815097E0,-3.251000740E0,9.304937392E0,1.132089075E1
1.639666158E1,4.935214317E0,-3.900058926E0,8.501510081E0,1.057556021E1
1.640664258E1,4.328747542E0,-4.750294953E0,7.240928739E0,9.681653084E0
1.641662258E1,3.628804253E0,-5.489049135E0,6.118117738E0,8.984945486E0
1.642660358E1,3.060049095E0,-6.108410191E0,5.285798750E0,8.638069457E0
1.643658458E1,2.853841188E0,-6.567823001E0,4.542503035E0,8.480273718E0
1.644656558E1,2.855475485E0,-6.791169682E0,3.781029496E0,8.280695016E0
1.645654658E1,3.172536660E0,-7.194382564E0,2.670580679E0,8.303982809E0
1.646652658E1,3.629785416E0,-7.460337321E0,1.262064196E0,8.391947398E0
1.647650758E1,4.341672812E0,-7.536775632E0,-3.655666070E-1,8.705558493E0
1.648648858E1,5.317592400E0,-7.492171901E0,-2.022392850E0,9.407417370E0
1.649646958E1,6.430054414E0,-7.158153800E0,-3.548130219E0,1.025543727E1
1.650644958E1,7.508310801E0,-6.872486326E0,-4.889666262E0,1.129223784E1
1.651643058E1,8.516360840E0,-6.842683652E0,-6.191500880E0,1.255728492E1
1.652641158E1,9.382456854E0,-7.229440715E0,-7.312612095E0,1.392011513E1
1.653639258E1,9.831100262E0,-7.931814691E0,-7.795999074E0,1.484391519E1
1.654637358E1,9.984141777E0,-8.493713404E0,-8.112895943E0,1.541574958E1
1.655635358E1,1.012979475E1,-8.734239789E0,-8.439037260E0,1.581508888E1
1.656633458E1,1.028728716E1,-9.293831776E0,-8.561254007E0,1.629412951E1
1.657631558E1,1.013195003E1,-9.807859919E0,-8.834148824E0,1.664009354E1
1.658629658E1,9.546745487E0,-9.575235461E0,-9.092414492E0,1.629409356E1
1.659627658E1,8.830894264E0,-9.417968164E0,-9.156419284E0,1.582791306E1
1.660625758E1,8.265773735E0,-9.758125257E0,-9.077256755E0,1.568249388E1
